ExperimentName,Subject,Session,Clock.Information,DataFile.Basename,Display1.RefreshRate,Display2.RefreshRate,ExperimentVersion,Group,RandomSeed,RuntimeCapabilities,RuntimeVersion,RuntimeVersionExpected,SessionDate,SessionStartDateTimeUtc,SessionTime,StudioVersion,Block,List1,List1.Cycle,List1.Sample,Procedure[Block],Running[Block],Trial,BlockList2,BlockList2.Cycle,BlockList2.Sample,BlockList4,BlockList4.Cycle,BlockList4.Sample,Procedure[Trial],Running[Trial],SubTrial,CM1PracTrails1,CM1PracTrails1.Cycle,CM1PracTrails1.Sample,CM1Trails,CM1Trails.Cycle,CM1Trails.Sample,CM2PracTrials,CM2PracTrials.Cycle,CM2PracTrials.Sample,CM2Trials,CM2Trials.Cycle,CM2Trials.Sample,CorrectSubj1,CorrectSubj2,Procedure[SubTrial],Running[SubTrial],Screen1_Obj_Colour,Screen2_Obj_Colour,Screen_1_Obj_Pos,Screen_2_Obj_Pos,Subject1ACC,Subject1RESP,Subject1RT,Subject2ACC,Subject2RESP,Subject2RT
DualSimon(I),1002,1,"<?xml version=""1.0""?>\n<Clock xmlns:dt=""urn:schemas-microsoft-com:datatypes""><Description dt:dt=""string"">E-Prime Primary Realtime Clock</Description><StartTime><Timestamp dt:dt=""int"">0</Timestamp><DateUtc dt:dt=""string"">2017-10-09T11:59:05Z</DateUtc></StartTime><FrequencyChanges><FrequencyChange><Frequency dt:dt=""r8"">2923154</Frequency><Timestamp dt:dt=""r8"">12634954953</Timestamp><Current dt:dt=""r8"">0</Current><DateUtc dt:dt=""string"">2017-10-09T11:59:05Z</DateUtc></FrequencyChange></FrequencyChanges></Clock>\n",DualSimon(I)-001002-1,59.955,59.955,1.0.0.518,1,-249379018,Professional,2.0.10.353,2.0.10.353,10/09/2017,09/10/2017 11:59,12:59:05,2.0.10.248,1,1,1,1,CM1,List1,1,NULL,NULL,NULL,1,1,1,CM1Prac,BlockList4,1,16,2,1,NULL,NULL,NULL,NULL,NULL,NULL,NULL,NULL,NULL,w,e,TrialProc2,CM1PracTrails1,red,blue,e,w,1,w,427,1,e,373
DualSimon(I),1002,1,"<?xml version=""1.0""?>\n<Clock xmlns:dt=""urn:schemas-microsoft-com:datatypes""><Description dt:dt=""string"">E-Prime Primary Realtime Clock</Description><StartTime><Timestamp dt:dt=""int"">0</Timestamp><DateUtc dt:dt=""string"">2017-10-09T11:59:05Z</DateUtc></StartTime><FrequencyChanges><FrequencyChange><Frequency dt:dt=""r8"">2923154</Frequency><Timestamp dt:dt=""r8"">12634954953</Timestamp><Current dt:dt=""r8"">0</Current><DateUtc dt:dt=""string"">2017-10-09T11:59:05Z</DateUtc></FrequencyChange></FrequencyChanges></Clock>\n",DualSimon(I)-001002-1,59.955,59.955,1.0.0.518,1,-249379018,Professional,2.0.10.353,2.0.10.353,10/09/2017,09/10/2017 11:59,12:59:05,2.0.10.248,1,1,1,1,CM1,List1,1,NULL,NULL,NULL,1,1,1,CM1Prac,BlockList4,2,2,2,2,NULL,NULL,NULL,NULL,NULL,NULL,NULL,NULL,NULL,w,w,TrialProc2,CM1PracTrails1,red,red,w,w,0,e,523,1,w,254
DualSimon(I),1002,1,"<?xml version=""1.0""?>\n<Clock xmlns:dt=""urn:schemas-microsoft-com:datatypes""><Description dt:dt=""string"">E-Prime Primary Realtime Clock</Description><StartTime><Timestamp dt:dt=""int"">0</Timestamp><DateUtc dt:dt=""string"">2017-10-09T11:59:05Z</DateUtc></StartTime><FrequencyChanges><FrequencyChange><Frequency dt:dt=""r8"">2923154</Frequency><Timestamp dt:dt=""r8"">12634954953</Timestamp><Current dt:dt=""r8"">0</Current><DateUtc dt:dt=""string"">2017-10-09T11:59:05Z</DateUtc></FrequencyChange></FrequencyChanges></Clock>\n",DualSimon(I)-001002-1,59.955,59.955,1.0.0.518,1,-249379018,Professional,2.0.10.353,2.0.10.353,10/09/2017,09/10/2017 11:59,12:59:05,2.0.10.248,1,1,1,1,CM1,List1,1,NULL,NULL,NULL,1,1,1,CM1Prac,BlockList4,3,11,2,3,NULL,NULL,NULL,NULL,NULL,NULL,NULL,NULL,NULL,e,w,TrialProc2,CM1PracTrails1,blue,red,e,w,1,e,672,1,w,275
DualSimon(I),1002,1,"<?xml version=""1.0""?>\n<Clock xmlns:dt=""urn:schemas-microsoft-com:datatypes""><Description dt:dt=""string"">E-Prime Primary Realtime Clock</Description><StartTime><Timestamp dt:dt=""int"">0</Timestamp><DateUtc dt:dt=""string"">2017-10-09T11:59:05Z</DateUtc></StartTime><FrequencyChanges><FrequencyChange><Frequency dt:dt=""r8"">2923154</Frequency><Timestamp dt:dt=""r8"">12634954953</Timestamp><Current dt:dt=""r8"">0</Current><DateUtc dt:dt=""string"">2017-10-09T11:59:05Z</DateUtc></FrequencyChange></FrequencyChanges></Clock>\n",DualSimon(I)-001002-1,59.955,59.955,1.0.0.518,1,-249379018,Professional,2.0.10.353,2.0.10.353,10/09/2017,09/10/2017 11:59,12:59:05,2.0.10.248,1,1,1,1,CM1,List1,1,NULL,NULL,NULL,1,1,1,CM1Prac,BlockList4,4,8,2,4,NULL,NULL,NULL,NULL,NULL,NULL,NULL,NULL,NULL,w,e,TrialProc2,CM1PracTrails1,red,blue,e,w,1,w,501,1,e,422
DualSimon(I),1002,1,"<?xml version=""1.0""?>\n<Clock xmlns:dt=""urn:schemas-microsoft-com:datatypes""><Description dt:dt=""string"">E-Prime Primary Realtime Clock</Description><StartTime><Timestamp dt:dt=""int"">0</Timestamp><DateUtc dt:dt=""string"">2017-10-09T11:59:05Z</DateUtc></StartTime><FrequencyChanges><FrequencyChange><Frequency dt:dt=""r8"">2923154</Frequency><Timestamp dt:dt=""r8"">12634954953</Timestamp><Current dt:dt=""r8"">0</Current><DateUtc dt:dt=""string"">2017-10-09T11:59:05Z</DateUtc></FrequencyChange></FrequencyChanges></Clock>\n",DualSimon(I)-001002-1,59.955,59.955,1.0.0.518,1,-249379018,Professional,2.0.10.353,2.0.10.353,10/09/2017,09/10/2017 11:59,12:59:05,2.0.10.248,1,1,1,1,CM1,List1,1,NULL,NULL,NULL,1,1,1,CM1Prac,BlockList4,5,7,2,5,NULL,NULL,NULL,NULL,NULL,NULL,NULL,NULL,NULL,e,w,TrialProc2,CM1PracTrails1,blue,red,w,e,1,e,478,1,w,353
DualSimon(I),1002,1,"<?xml version=""1.0""?>\n<Clock xmlns:dt=""urn:schemas-microsoft-com:datatypes""><Description dt:dt=""string"">E-Prime Primary Realtime Clock</Description><StartTime><Timestamp dt:dt=""int"">0</Timestamp><DateUtc dt:dt=""string"">2017-10-09T11:59:05Z</DateUtc></StartTime><FrequencyChanges><FrequencyChange><Frequency dt:dt=""r8"">2923154</Frequency><Timestamp dt:dt=""r8"">12634954953</Timestamp><Current dt:dt=""r8"">0</Current><DateUtc dt:dt=""string"">2017-10-09T11:59:05Z</DateUtc></FrequencyChange></FrequencyChanges></Clock>\n",DualSimon(I)-001002-1,59.955,59.955,1.0.0.518,1,-249379018,Professional,2.0.10.353,2.0.10.353,10/09/2017,09/10/2017 11:59,12:59:05,2.0.10.248,1,1,1,1,CM1,List1,1,NULL,NULL,NULL,1,1,1,CM1Prac,BlockList4,6,4,2,6,NULL,NULL,NULL,NULL,NULL,NULL,NULL,NULL,NULL,w,e,TrialProc2,CM1PracTrails1,red,blue,w,e,1,w,1635,1,e,384
DualSimon(I),1002,1,"<?xml version=""1.0""?>\n<Clock xmlns:dt=""urn:schemas-microsoft-com:datatypes""><Description dt:dt=""string"">E-Prime Primary Realtime Clock</Description><StartTime><Timestamp dt:dt=""int"">0</Timestamp><DateUtc dt:dt=""string"">2017-10-09T11:59:05Z</DateUtc></StartTime><FrequencyChanges><FrequencyChange><Frequency dt:dt=""r8"">2923154</Frequency><Timestamp dt:dt=""r8"">12634954953</Timestamp><Current dt:dt=""r8"">0</Current><DateUtc dt:dt=""string"">2017-10-09T11:59:05Z</DateUtc></FrequencyChange></FrequencyChanges></Clock>\n",DualSimon(I)-001002-1,59.955,59.955,1.0.0.518,1,-249379018,Professional,2.0.10.353,2.0.10.353,10/09/2017,09/10/2017 11:59,12:59:05,2.0.10.248,1,1,1,1,CM1,List1,1,NULL,NULL,NULL,1,1,1,CM1Prac,BlockList4,7,1,2,7,NULL,NULL,NULL,NULL,NULL,NULL,NULL,NULL,NULL,e,e,TrialProc2,CM1PracTrails1,blue,blue,e,e,1,e,494,1,e,371
DualSimon(I),1002,1,"<?xml version=""1.0""?>\n<Clock xmlns:dt=""urn:schemas-microsoft-com:datatypes""><Description dt:dt=""string"">E-Prime Primary Realtime Clock</Description><StartTime><Timestamp dt:dt=""int"">0</Timestamp><DateUtc dt:dt=""string"">2017-10-09T11:59:05Z</DateUtc></StartTime><FrequencyChanges><FrequencyChange><Frequency dt:dt=""r8"">2923154</Frequency><Timestamp dt:dt=""r8"">12634954953</Timestamp><Current dt:dt=""r8"">0</Current><DateUtc dt:dt=""string"">2017-10-09T11:59:05Z</DateUtc></FrequencyChange></FrequencyChanges></Clock>\n",DualSimon(I)-001002-1,59.955,59.955,1.0.0.518,1,-249379018,Professional,2.0.10.353,2.0.10.353,10/09/2017,09/10/2017 11:59,12:59:05,2.0.10.248,1,1,1,1,CM1,List1,1,NULL,NULL,NULL,1,1,1,CM1Prac,BlockList4,8,14,2,8,NULL,NULL,NULL,NULL,NULL,NULL,NULL,NULL,NULL,w,w,TrialProc2,CM1PracTrails1,red,red,e,e,1,w,466,1,w,484
DualSimon(I),1002,1,"<?xml version=""1.0""?>\n<Clock xmlns:dt=""urn:schemas-microsoft-com:datatypes""><Description dt:dt=""string"">E-Prime Primary Realtime Clock</Description><StartTime><Timestamp dt:dt=""int"">0</Timestamp><DateUtc dt:dt=""string"">2017-10-09T11:59:05Z</DateUtc></StartTime><FrequencyChanges><FrequencyChange><Frequency dt:dt=""r8"">2923154</Frequency><Timestamp dt:dt=""r8"">12634954953</Timestamp><Current dt:dt=""r8"">0</Current><DateUtc dt:dt=""string"">2017-10-09T11:59:05Z</DateUtc></FrequencyChange></FrequencyChanges></Clock>\n",DualSimon(I)-001002-1,59.955,59.955,1.0.0.518,1,-249379018,Professional,2.0.10.353,2.0.10.353,10/09/2017,09/10/2017 11:59,12:59:05,2.0.10.248,1,1,1,1,CM1,List1,1,NULL,NULL,NULL,1,1,1,CM1Prac,BlockList4,9,6,2,9,NULL,NULL,NULL,NULL,NULL,NULL,NULL,NULL,NULL,w,w,TrialProc2,CM1PracTrails1,red,red,e,e,1,w,725,1,w,555
DualSimon(I),1002,1,"<?xml version=""1.0""?>\n<Clock xmlns:dt=""urn:schemas-microsoft-com:datatypes""><Description dt:dt=""string"">E-Prime Primary Realtime Clock</Description><StartTime><Timestamp dt:dt=""int"">0</Timestamp><DateUtc dt:dt=""string"">2017-10-09T11:59:05Z</DateUtc></StartTime><FrequencyChanges><FrequencyChange><Frequency dt:dt=""r8"">2923154</Frequency><Timestamp dt:dt=""r8"">12634954953</Timestamp><Current dt:dt=""r8"">0</Current><DateUtc dt:dt=""string"">2017-10-09T11:59:05Z</DateUtc></FrequencyChange></FrequencyChanges></Clock>\n",DualSimon(I)-001002-1,59.955,59.955,1.0.0.518,1,-249379018,Professional,2.0.10.353,2.0.10.353,10/09/2017,09/10/2017 11:59,12:59:05,2.0.10.248,1,1,1,1,CM1,List1,1,NULL,NULL,NULL,1,1,1,CM1Prac,BlockList4,10,13,2,10,NULL,NULL,NULL,NULL,NULL,NULL,NULL,NULL,NULL,e,e,TrialProc2,CM1PracTrails1,blue,blue,w,w,1,e,436,1,e,413
DualSimon(I),1002,1,"<?xml version=""1.0""?>\n<Clock xmlns:dt=""urn:schemas-microsoft-com:datatypes""><Description dt:dt=""string"">E-Prime Primary Realtime Clock</Description><StartTime><Timestamp dt:dt=""int"">0</Timestamp><DateUtc dt:dt=""string"">2017-10-09T11:59:05Z</DateUtc></StartTime><FrequencyChanges><FrequencyChange><Frequency dt:dt=""r8"">2923154</Frequency><Timestamp dt:dt=""r8"">12634954953</Timestamp><Current dt:dt=""r8"">0</Current><DateUtc dt:dt=""string"">2017-10-09T11:59:05Z</DateUtc></FrequencyChange></FrequencyChanges></Clock>\n",DualSimon(I)-001002-1,59.955,59.955,1.0.0.518,1,-249379018,Professional,2.0.10.353,2.0.10.353,10/09/2017,09/10/2017 11:59,12:59:05,2.0.10.248,1,1,1,1,CM1,List1,1,NULL,NULL,NULL,1,1,1,CM1Prac,BlockList4,11,12,2,11,NULL,NULL,NULL,NULL,NULL,NULL,NULL,NULL,NULL,w,e,TrialProc2,CM1PracTrails1,red,blue,w,e,1,w,798,1,e,449
DualSimon(I),1002,1,"<?xml version=""1.0""?>\n<Clock xmlns:dt=""urn:schemas-microsoft-com:datatypes""><Description dt:dt=""string"">E-Prime Primary Realtime Clock</Description><StartTime><Timestamp dt:dt=""int"">0</Timestamp><DateUtc dt:dt=""string"">2017-10-09T11:59:05Z</DateUtc></StartTime><FrequencyChanges><FrequencyChange><Frequency dt:dt=""r8"">2923154</Frequency><Timestamp dt:dt=""r8"">12634954953</Timestamp><Current dt:dt=""r8"">0</Current><DateUtc dt:dt=""string"">2017-10-09T11:59:05Z</DateUtc></FrequencyChange></FrequencyChanges></Clock>\n",DualSimon(I)-001002-1,59.955,59.955,1.0.0.518,1,-249379018,Professional,2.0.10.353,2.0.10.353,10/09/2017,09/10/2017 11:59,12:59:05,2.0.10.248,1,1,1,1,CM1,List1,1,NULL,NULL,NULL,1,1,1,CM1Prac,BlockList4,12,5,2,12,NULL,NULL,NULL,NULL,NULL,NULL,NULL,NULL,NULL,e,e,TrialProc2,CM1PracTrails1,blue,blue,w,w,1,e,602,1,e,433
DualSimon(I),1002,1,"<?xml version=""1.0""?>\n<Clock xmlns:dt=""urn:schemas-microsoft-com:datatypes""><Description dt:dt=""string"">E-Prime Primary Realtime Clock</Description><StartTime><Timestamp dt:dt=""int"">0</Timestamp><DateUtc dt:dt=""string"">2017-10-09T11:59:05Z</DateUtc></StartTime><FrequencyChanges><FrequencyChange><Frequency dt:dt=""r8"">2923154</Frequency><Timestamp dt:dt=""r8"">12634954953</Timestamp><Current dt:dt=""r8"">0</Current><DateUtc dt:dt=""string"">2017-10-09T11:59:05Z</DateUtc></FrequencyChange></FrequencyChanges></Clock>\n",DualSimon(I)-001002-1,59.955,59.955,1.0.0.518,1,-249379018,Professional,2.0.10.353,2.0.10.353,10/09/2017,09/10/2017 11:59,12:59:05,2.0.10.248,1,1,1,1,CM1,List1,1,NULL,NULL,NULL,1,1,1,CM1Prac,BlockList4,13,15,2,13,NULL,NULL,NULL,NULL,NULL,NULL,NULL,NULL,NULL,e,w,TrialProc2,CM1PracTrails1,blue,red,w,e,1,e,508,1,w,456
DualSimon(I),1002,1,"<?xml version=""1.0""?>\n<Clock xmlns:dt=""urn:schemas-microsoft-com:datatypes""><Description dt:dt=""string"">E-Prime Primary Realtime Clock</Description><StartTime><Timestamp dt:dt=""int"">0</Timestamp><DateUtc dt:dt=""string"">2017-10-09T11:59:05Z</DateUtc></StartTime><FrequencyChanges><FrequencyChange><Frequency dt:dt=""r8"">2923154</Frequency><Timestamp dt:dt=""r8"">12634954953</Timestamp><Current dt:dt=""r8"">0</Current><DateUtc dt:dt=""string"">2017-10-09T11:59:05Z</DateUtc></FrequencyChange></FrequencyChanges></Clock>\n",DualSimon(I)-001002-1,59.955,59.955,1.0.0.518,1,-249379018,Professional,2.0.10.353,2.0.10.353,10/09/2017,09/10/2017 11:59,12:59:05,2.0.10.248,1,1,1,1,CM1,List1,1,NULL,NULL,NULL,1,1,1,CM1Prac,BlockList4,14,3,2,14,NULL,NULL,NULL,NULL,NULL,NULL,NULL,NULL,NULL,e,w,TrialProc2,CM1PracTrails1,blue,red,e,w,1,e,308,0,e,542
DualSimon(I),1002,1,"<?xml version=""1.0""?>\n<Clock xmlns:dt=""urn:schemas-microsoft-com:datatypes""><Description dt:dt=""string"">E-Prime Primary Realtime Clock</Description><StartTime><Timestamp dt:dt=""int"">0</Timestamp><DateUtc dt:dt=""string"">2017-10-09T11:59:05Z</DateUtc></StartTime><FrequencyChanges><FrequencyChange><Frequency dt:dt=""r8"">2923154</Frequency><Timestamp dt:dt=""r8"">12634954953</Timestamp><Current dt:dt=""r8"">0</Current><DateUtc dt:dt=""string"">2017-10-09T11:59:05Z</DateUtc></FrequencyChange></FrequencyChanges></Clock>\n",DualSimon(I)-001002-1,59.955,59.955,1.0.0.518,1,-249379018,Professional,2.0.10.353,2.0.10.353,10/09/2017,09/10/2017 11:59,12:59:05,2.0.10.248,1,1,1,1,CM1,List1,1,NULL,NULL,NULL,1,1,1,CM1Prac,BlockList4,15,10,2,15,NULL,NULL,NULL,NULL,NULL,NULL,NULL,NULL,NULL,w,w,TrialProc2,CM1PracTrails1,red,red,w,w,1,w,322,0,e,489
DualSimon(I),1002,1,"<?xml version=""1.0""?>\n<Clock xmlns:dt=""urn:schemas-microsoft-com:datatypes""><Description dt:dt=""string"">E-Prime Primary Realtime Clock</Description><StartTime><Timestamp dt:dt=""int"">0</Timestamp><DateUtc dt:dt=""string"">2017-10-09T11:59:05Z</DateUtc></StartTime><FrequencyChanges><FrequencyChange><Frequency dt:dt=""r8"">2923154</Frequency><Timestamp dt:dt=""r8"">12634954953</Timestamp><Current dt:dt=""r8"">0</Current><DateUtc dt:dt=""string"">2017-10-09T11:59:05Z</DateUtc></FrequencyChange></FrequencyChanges></Clock>\n",DualSimon(I)-001002-1,59.955,59.955,1.0.0.518,1,-249379018,Professional,2.0.10.353,2.0.10.353,10/09/2017,09/10/2017 11:59,12:59:05,2.0.10.248,1,1,1,1,CM1,List1,1,NULL,NULL,NULL,1,1,1,CM1Prac,BlockList4,16,9,2,16,NULL,NULL,NULL,NULL,NULL,NULL,NULL,NULL,NULL,e,e,TrialProc2,CM1PracTrails1,blue,blue,e,e,1,e,298,1,e,557
DualSimon(I),1002,1,"<?xml version=""1.0""?>\n<Clock xmlns:dt=""urn:schemas-microsoft-com:datatypes""><Description dt:dt=""string"">E-Prime Primary Realtime Clock</Description><StartTime><Timestamp dt:dt=""int"">0</Timestamp><DateUtc dt:dt=""string"">2017-10-09T11:59:05Z</DateUtc></StartTime><FrequencyChanges><FrequencyChange><Frequency dt:dt=""r8"">2923154</Frequency><Timestamp dt:dt=""r8"">12634954953</Timestamp><Current dt:dt=""r8"">0</Current><DateUtc dt:dt=""string"">2017-10-09T11:59:05Z</DateUtc></FrequencyChange></FrequencyChanges></Clock>\n",DualSimon(I)-001002-1,59.955,59.955,1.0.0.518,1,-249379018,Professional,2.0.10.353,2.0.10.353,10/09/2017,09/10/2017 11:59,12:59:05,2.0.10.248,1,1,1,1,CM1,List1,2,NULL,NULL,NULL,2,1,2,InstruProc,BlockList4,NULL,NULL,NULL,NULL,NULL,NULL,NULL,NULL,NULL,NULL,NULL,NULL,NULL,NULL,NULL,NULL,NULL,NULL,NULL,NULL,NULL,NULL,NULL,NULL,NULL,NULL,NULL
DualSimon(I),1002,1,"<?xml version=""1.0""?>\n<Clock xmlns:dt=""urn:schemas-microsoft-com:datatypes""><Description dt:dt=""string"">E-Prime Primary Realtime Clock</Description><StartTime><Timestamp dt:dt=""int"">0</Timestamp><DateUtc dt:dt=""string"">2017-10-09T11:59:05Z</DateUtc></StartTime><FrequencyChanges><FrequencyChange><Frequency dt:dt=""r8"">2923154</Frequency><Timestamp dt:dt=""r8"">12634954953</Timestamp><Current dt:dt=""r8"">0</Current><DateUtc dt:dt=""string"">2017-10-09T11:59:05Z</DateUtc></FrequencyChange></FrequencyChanges></Clock>\n",DualSimon(I)-001002-1,59.955,59.955,1.0.0.518,1,-249379018,Professional,2.0.10.353,2.0.10.353,10/09/2017,09/10/2017 11:59,12:59:05,2.0.10.248,1,1,1,1,CM1,List1,3,NULL,NULL,NULL,3,1,3,b1,BlockList4,1,NULL,NULL,NULL,94,2,1,NULL,NULL,NULL,NULL,NULL,NULL,w,e,TrialProc,CM1Trails,red,blue,e,w,1,w,556,1,e,611
DualSimon(I),1002,1,"<?xml version=""1.0""?>\n<Clock xmlns:dt=""urn:schemas-microsoft-com:datatypes""><Description dt:dt=""string"">E-Prime Primary Realtime Clock</Description><StartTime><Timestamp dt:dt=""int"">0</Timestamp><DateUtc dt:dt=""string"">2017-10-09T11:59:05Z</DateUtc></StartTime><FrequencyChanges><FrequencyChange><Frequency dt:dt=""r8"">2923154</Frequency><Timestamp dt:dt=""r8"">12634954953</Timestamp><Current dt:dt=""r8"">0</Current><DateUtc dt:dt=""string"">2017-10-09T11:59:05Z</DateUtc></FrequencyChange></FrequencyChanges></Clock>\n",DualSimon(I)-001002-1,59.955,59.955,1.0.0.518,1,-249379018,Professional,2.0.10.353,2.0.10.353,10/09/2017,09/10/2017 11:59,12:59:05,2.0.10.248,1,1,1,1,CM1,List1,3,NULL,NULL,NULL,3,1,3,b1,BlockList4,2,NULL,NULL,NULL,85,2,2,NULL,NULL,NULL,NULL,NULL,NULL,e,w,TrialProc,CM1Trails,blue,red,w,e,1,e,424,1,w,449
DualSimon(I),1002,1,"<?xml version=""1.0""?>\n<Clock xmlns:dt=""urn:schemas-microsoft-com:datatypes""><Description dt:dt=""string"">E-Prime Primary Realtime Clock</Description><StartTime><Timestamp dt:dt=""int"">0</Timestamp><DateUtc dt:dt=""string"">2017-10-09T11:59:05Z</DateUtc></StartTime><FrequencyChanges><FrequencyChange><Frequency dt:dt=""r8"">2923154</Frequency><Timestamp dt:dt=""r8"">12634954953</Timestamp><Current dt:dt=""r8"">0</Current><DateUtc dt:dt=""string"">2017-10-09T11:59:05Z</DateUtc></FrequencyChange></FrequencyChanges></Clock>\n",DualSimon(I)-001002-1,59.955,59.955,1.0.0.518,1,-249379018,Professional,2.0.10.353,2.0.10.353,10/09/2017,09/10/2017 11:59,12:59:05,2.0.10.248,1,1,1,1,CM1,List1,3,NULL,NULL,NULL,3,1,3,b1,BlockList4,3,NULL,NULL,NULL,81,2,3,NULL,NULL,NULL,NULL,NULL,NULL,e,w,TrialProc,CM1Trails,blue,red,w,e,1,e,432,1,w,549
DualSimon(I),1002,1,"<?xml version=""1.0""?>\n<Clock xmlns:dt=""urn:schemas-microsoft-com:datatypes""><Description dt:dt=""string"">E-Prime Primary Realtime Clock</Description><StartTime><Timestamp dt:dt=""int"">0</Timestamp><DateUtc dt:dt=""string"">2017-10-09T11:59:05Z</DateUtc></StartTime><FrequencyChanges><FrequencyChange><Frequency dt:dt=""r8"">2923154</Frequency><Timestamp dt:dt=""r8"">12634954953</Timestamp><Current dt:dt=""r8"">0</Current><DateUtc dt:dt=""string"">2017-10-09T11:59:05Z</DateUtc></FrequencyChange></FrequencyChanges></Clock>\n",DualSimon(I)-001002-1,59.955,59.955,1.0.0.518,1,-249379018,Professional,2.0.10.353,2.0.10.353,10/09/2017,09/10/2017 11:59,12:59:05,2.0.10.248,1,1,1,1,CM1,List1,3,NULL,NULL,NULL,3,1,3,b1,BlockList4,4,NULL,NULL,NULL,37,2,4,NULL,NULL,NULL,NULL,NULL,NULL,e,w,TrialProc,CM1Trails,blue,red,e,w,1,e,378,0,e,369
DualSimon(I),1002,1,"<?xml version=""1.0""?>\n<Clock xmlns:dt=""urn:schemas-microsoft-com:datatypes""><Description dt:dt=""string"">E-Prime Primary Realtime Clock</Description><StartTime><Timestamp dt:dt=""int"">0</Timestamp><DateUtc dt:dt=""string"">2017-10-09T11:59:05Z</DateUtc></StartTime><FrequencyChanges><FrequencyChange><Frequency dt:dt=""r8"">2923154</Frequency><Timestamp dt:dt=""r8"">12634954953</Timestamp><Current dt:dt=""r8"">0</Current><DateUtc dt:dt=""string"">2017-10-09T11:59:05Z</DateUtc></FrequencyChange></FrequencyChanges></Clock>\n",DualSimon(I)-001002-1,59.955,59.955,1.0.0.518,1,-249379018,Professional,2.0.10.353,2.0.10.353,10/09/2017,09/10/2017 11:59,12:59:05,2.0.10.248,1,1,1,1,CM1,List1,3,NULL,NULL,NULL,3,1,3,b1,BlockList4,5,NULL,NULL,NULL,64,2,5,NULL,NULL,NULL,NULL,NULL,NULL,w,w,TrialProc,CM1Trails,red,red,e,e,1,w,333,1,w,429
DualSimon(I),1002,1,"<?xml version=""1.0""?>\n<Clock xmlns:dt=""urn:schemas-microsoft-com:datatypes""><Description dt:dt=""string"">E-Prime Primary Realtime Clock</Description><StartTime><Timestamp dt:dt=""int"">0</Timestamp><DateUtc dt:dt=""string"">2017-10-09T11:59:05Z</DateUtc></StartTime><FrequencyChanges><FrequencyChange><Frequency dt:dt=""r8"">2923154</Frequency><Timestamp dt:dt=""r8"">12634954953</Timestamp><Current dt:dt=""r8"">0</Current><DateUtc dt:dt=""string"">2017-10-09T11:59:05Z</DateUtc></FrequencyChange></FrequencyChanges></Clock>\n",DualSimon(I)-001002-1,59.955,59.955,1.0.0.518,1,-249379018,Professional,2.0.10.353,2.0.10.353,10/09/2017,09/10/2017 11:59,12:59:05,2.0.10.248,1,1,1,1,CM1,List1,3,NULL,NULL,NULL,3,1,3,b1,BlockList4,6,NULL,NULL,NULL,9,2,6,NULL,NULL,NULL,NULL,NULL,NULL,e,e,TrialProc,CM1Trails,blue,blue,e,e,1,e,308,1,e,540
DualSimon(I),1002,1,"<?xml version=""1.0""?>\n<Clock xmlns:dt=""urn:schemas-microsoft-com:datatypes""><Description dt:dt=""string"">E-Prime Primary Realtime Clock</Description><StartTime><Timestamp dt:dt=""int"">0</Timestamp><DateUtc dt:dt=""string"">2017-10-09T11:59:05Z</DateUtc></StartTime><FrequencyChanges><FrequencyChange><Frequency dt:dt=""r8"">2923154</Frequency><Timestamp dt:dt=""r8"">12634954953</Timestamp><Current dt:dt=""r8"">0</Current><DateUtc dt:dt=""string"">2017-10-09T11:59:05Z</DateUtc></FrequencyChange></FrequencyChanges></Clock>\n",DualSimon(I)-001002-1,59.955,59.955,1.0.0.518,1,-249379018,Professional,2.0.10.353,2.0.10.353,10/09/2017,09/10/2017 11:59,12:59:05,2.0.10.248,1,1,1,1,CM1,List1,3,NULL,NULL,NULL,3,1,3,b1,BlockList4,7,NULL,NULL,NULL,38,2,7,NULL,NULL,NULL,NULL,NULL,NULL,e,w,TrialProc,CM1Trails,blue,red,e,w,1,e,342,1,w,436
DualSimon(I),1002,1,"<?xml version=""1.0""?>\n<Clock xmlns:dt=""urn:schemas-microsoft-com:datatypes""><Description dt:dt=""string"">E-Prime Primary Realtime Clock</Description><StartTime><Timestamp dt:dt=""int"">0</Timestamp><DateUtc dt:dt=""string"">2017-10-09T11:59:05Z</DateUtc></StartTime><FrequencyChanges><FrequencyChange><Frequency dt:dt=""r8"">2923154</Frequency><Timestamp dt:dt=""r8"">12634954953</Timestamp><Current dt:dt=""r8"">0</Current><DateUtc dt:dt=""string"">2017-10-09T11:59:05Z</DateUtc></FrequencyChange></FrequencyChanges></Clock>\n",DualSimon(I)-001002-1,59.955,59.955,1.0.0.518,1,-249379018,Professional,2.0.10.353,2.0.10.353,10/09/2017,09/10/2017 11:59,12:59:05,2.0.10.248,1,1,1,1,CM1,List1,3,NULL,NULL,NULL,3,1,3,b1,BlockList4,8,NULL,NULL,NULL,24,2,8,NULL,NULL,NULL,NULL,NULL,NULL,w,w,TrialProc,CM1Trails,red,red,w,w,1,w,284,1,w,351
DualSimon(I),1002,1,"<?xml version=""1.0""?>\n<Clock xmlns:dt=""urn:schemas-microsoft-com:datatypes""><Description dt:dt=""string"">E-Prime Primary Realtime Clock</Description><StartTime><Timestamp dt:dt=""int"">0</Timestamp><DateUtc dt:dt=""string"">2017-10-09T11:59:05Z</DateUtc></StartTime><FrequencyChanges><FrequencyChange><Frequency dt:dt=""r8"">2923154</Frequency><Timestamp dt:dt=""r8"">12634954953</Timestamp><Current dt:dt=""r8"">0</Current><DateUtc dt:dt=""string"">2017-10-09T11:59:05Z</DateUtc></FrequencyChange></FrequencyChanges></Clock>\n",DualSimon(I)-001002-1,59.955,59.955,1.0.0.518,1,-249379018,Professional,2.0.10.353,2.0.10.353,10/09/2017,09/10/2017 11:59,12:59:05,2.0.10.248,1,1,1,1,CM1,List1,3,NULL,NULL,NULL,3,1,3,b1,BlockList4,9,NULL,NULL,NULL,50,2,9,NULL,NULL,NULL,NULL,NULL,NULL,w,e,TrialProc,CM1Trails,red,blue,w,e,1,w,378,1,e,336
DualSimon(I),1002,1,"<?xml version=""1.0""?>\n<Clock xmlns:dt=""urn:schemas-microsoft-com:datatypes""><Description dt:dt=""string"">E-Prime Primary Realtime Clock</Description><StartTime><Timestamp dt:dt=""int"">0</Timestamp><DateUtc dt:dt=""string"">2017-10-09T11:59:05Z</DateUtc></StartTime><FrequencyChanges><FrequencyChange><Frequency dt:dt=""r8"">2923154</Frequency><Timestamp dt:dt=""r8"">12634954953</Timestamp><Current dt:dt=""r8"">0</Current><DateUtc dt:dt=""string"">2017-10-09T11:59:05Z</DateUtc></FrequencyChange></FrequencyChanges></Clock>\n",DualSimon(I)-001002-1,59.955,59.955,1.0.0.518,1,-249379018,Professional,2.0.10.353,2.0.10.353,10/09/2017,09/10/2017 11:59,12:59:05,2.0.10.248,1,1,1,1,CM1,List1,3,NULL,NULL,NULL,3,1,3,b1,BlockList4,10,NULL,NULL,NULL,57,2,10,NULL,NULL,NULL,NULL,NULL,NULL,e,e,TrialProc,CM1Trails,blue,blue,w,w,0,w,467,1,e,442
DualSimon(I),1002,1,"<?xml version=""1.0""?>\n<Clock xmlns:dt=""urn:schemas-microsoft-com:datatypes""><Description dt:dt=""string"">E-Prime Primary Realtime Clock</Description><StartTime><Timestamp dt:dt=""int"">0</Timestamp><DateUtc dt:dt=""string"">2017-10-09T11:59:05Z</DateUtc></StartTime><FrequencyChanges><FrequencyChange><Frequency dt:dt=""r8"">2923154</Frequency><Timestamp dt:dt=""r8"">12634954953</Timestamp><Current dt:dt=""r8"">0</Current><DateUtc dt:dt=""string"">2017-10-09T11:59:05Z</DateUtc></FrequencyChange></FrequencyChanges></Clock>\n",DualSimon(I)-001002-1,59.955,59.955,1.0.0.518,1,-249379018,Professional,2.0.10.353,2.0.10.353,10/09/2017,09/10/2017 11:59,12:59:05,2.0.10.248,1,1,1,1,CM1,List1,3,NULL,NULL,NULL,3,1,3,b1,BlockList4,11,NULL,NULL,NULL,3,2,11,NULL,NULL,NULL,NULL,NULL,NULL,e,w,TrialProc,CM1Trails,blue,red,e,w,0,w,417,1,w,368
DualSimon(I),1002,1,"<?xml version=""1.0""?>\n<Clock xmlns:dt=""urn:schemas-microsoft-com:datatypes""><Description dt:dt=""string"">E-Prime Primary Realtime Clock</Description><StartTime><Timestamp dt:dt=""int"">0</Timestamp><DateUtc dt:dt=""string"">2017-10-09T11:59:05Z</DateUtc></StartTime><FrequencyChanges><FrequencyChange><Frequency dt:dt=""r8"">2923154</Frequency><Timestamp dt:dt=""r8"">12634954953</Timestamp><Current dt:dt=""r8"">0</Current><DateUtc dt:dt=""string"">2017-10-09T11:59:05Z</DateUtc></FrequencyChange></FrequencyChanges></Clock>\n",DualSimon(I)-001002-1,59.955,59.955,1.0.0.518,1,-249379018,Professional,2.0.10.353,2.0.10.353,10/09/2017,09/10/2017 11:59,12:59:05,2.0.10.248,1,1,1,1,CM1,List1,3,NULL,NULL,NULL,3,1,3,b1,BlockList4,12,NULL,NULL,NULL,4,2,12,NULL,NULL,NULL,NULL,NULL,NULL,w,e,TrialProc,CM1Trails,red,blue,w,e,0,e,262,1,e,358
DualSimon(I),1002,1,"<?xml version=""1.0""?>\n<Clock xmlns:dt=""urn:schemas-microsoft-com:datatypes""><Description dt:dt=""string"">E-Prime Primary Realtime Clock</Description><StartTime><Timestamp dt:dt=""int"">0</Timestamp><DateUtc dt:dt=""string"">2017-10-09T11:59:05Z</DateUtc></StartTime><FrequencyChanges><FrequencyChange><Frequency dt:dt=""r8"">2923154</Frequency><Timestamp dt:dt=""r8"">12634954953</Timestamp><Current dt:dt=""r8"">0</Current><DateUtc dt:dt=""string"">2017-10-09T11:59:05Z</DateUtc></FrequencyChange></FrequencyChanges></Clock>\n",DualSimon(I)-001002-1,59.955,59.955,1.0.0.518,1,-249379018,Professional,2.0.10.353,2.0.10.353,10/09/2017,09/10/2017 11:59,12:59:05,2.0.10.248,1,1,1,1,CM1,List1,3,NULL,NULL,NULL,3,1,3,b1,BlockList4,13,NULL,NULL,NULL,36,2,13,NULL,NULL,NULL,NULL,NULL,NULL,e,w,TrialProc,CM1Trails,blue,red,e,w,0,w,381,1,w,333
DualSimon(I),1002,1,"<?xml version=""1.0""?>\n<Clock xmlns:dt=""urn:schemas-microsoft-com:datatypes""><Description dt:dt=""string"">E-Prime Primary Realtime Clock</Description><StartTime><Timestamp dt:dt=""int"">0</Timestamp><DateUtc dt:dt=""string"">2017-10-09T11:59:05Z</DateUtc></StartTime><FrequencyChanges><FrequencyChange><Frequency dt:dt=""r8"">2923154</Frequency><Timestamp dt:dt=""r8"">12634954953</Timestamp><Current dt:dt=""r8"">0</Current><DateUtc dt:dt=""string"">2017-10-09T11:59:05Z</DateUtc></FrequencyChange></FrequencyChanges></Clock>\n",DualSimon(I)-001002-1,59.955,59.955,1.0.0.518,1,-249379018,Professional,2.0.10.353,2.0.10.353,10/09/2017,09/10/2017 11:59,12:59:05,2.0.10.248,1,1,1,1,CM1,List1,3,NULL,NULL,NULL,3,1,3,b1,BlockList4,14,NULL,NULL,NULL,59,2,14,NULL,NULL,NULL,NULL,NULL,NULL,e,e,TrialProc,CM1Trails,blue,blue,w,w,1,e,732,1,e,438
DualSimon(I),1002,1,"<?xml version=""1.0""?>\n<Clock xmlns:dt=""urn:schemas-microsoft-com:datatypes""><Description dt:dt=""string"">E-Prime Primary Realtime Clock</Description><StartTime><Timestamp dt:dt=""int"">0</Timestamp><DateUtc dt:dt=""string"">2017-10-09T11:59:05Z</DateUtc></StartTime><FrequencyChanges><FrequencyChange><Frequency dt:dt=""r8"">2923154</Frequency><Timestamp dt:dt=""r8"">12634954953</Timestamp><Current dt:dt=""r8"">0</Current><DateUtc dt:dt=""string"">2017-10-09T11:59:05Z</DateUtc></FrequencyChange></FrequencyChanges></Clock>\n",DualSimon(I)-001002-1,59.955,59.955,1.0.0.518,1,-249379018,Professional,2.0.10.353,2.0.10.353,10/09/2017,09/10/2017 11:59,12:59:05,2.0.10.248,1,1,1,1,CM1,List1,3,NULL,NULL,NULL,3,1,3,b1,BlockList4,15,NULL,NULL,NULL,32,2,15,NULL,NULL,NULL,NULL,NULL,NULL,e,w,TrialProc,CM1Trails,blue,red,e,w,1,e,517,1,w,340
DualSimon(I),1002,1,"<?xml version=""1.0""?>\n<Clock xmlns:dt=""urn:schemas-microsoft-com:datatypes""><Description dt:dt=""string"">E-Prime Primary Realtime Clock</Description><StartTime><Timestamp dt:dt=""int"">0</Timestamp><DateUtc dt:dt=""string"">2017-10-09T11:59:05Z</DateUtc></StartTime><FrequencyChanges><FrequencyChange><Frequency dt:dt=""r8"">2923154</Frequency><Timestamp dt:dt=""r8"">12634954953</Timestamp><Current dt:dt=""r8"">0</Current><DateUtc dt:dt=""string"">2017-10-09T11:59:05Z</DateUtc></FrequencyChange></FrequencyChanges></Clock>\n",DualSimon(I)-001002-1,59.955,59.955,1.0.0.518,1,-249379018,Professional,2.0.10.353,2.0.10.353,10/09/2017,09/10/2017 11:59,12:59:05,2.0.10.248,1,1,1,1,CM1,List1,3,NULL,NULL,NULL,3,1,3,b1,BlockList4,16,NULL,NULL,NULL,5,2,16,NULL,NULL,NULL,NULL,NULL,NULL,e,e,TrialProc,CM1Trails,blue,blue,w,w,1,e,400,1,e,443
DualSimon(I),1002,1,"<?xml version=""1.0""?>\n<Clock xmlns:dt=""urn:schemas-microsoft-com:datatypes""><Description dt:dt=""string"">E-Prime Primary Realtime Clock</Description><StartTime><Timestamp dt:dt=""int"">0</Timestamp><DateUtc dt:dt=""string"">2017-10-09T11:59:05Z</DateUtc></StartTime><FrequencyChanges><FrequencyChange><Frequency dt:dt=""r8"">2923154</Frequency><Timestamp dt:dt=""r8"">12634954953</Timestamp><Current dt:dt=""r8"">0</Current><DateUtc dt:dt=""string"">2017-10-09T11:59:05Z</DateUtc></FrequencyChange></FrequencyChanges></Clock>\n",DualSimon(I)-001002-1,59.955,59.955,1.0.0.518,1,-249379018,Professional,2.0.10.353,2.0.10.353,10/09/2017,09/10/2017 11:59,12:59:05,2.0.10.248,1,1,1,1,CM1,List1,3,NULL,NULL,NULL,3,1,3,b1,BlockList4,17,NULL,NULL,NULL,34,2,17,NULL,NULL,NULL,NULL,NULL,NULL,e,w,TrialProc,CM1Trails,blue,red,e,w,1,e,333,1,w,360
DualSimon(I),1002,1,"<?xml version=""1.0""?>\n<Clock xmlns:dt=""urn:schemas-microsoft-com:datatypes""><Description dt:dt=""string"">E-Prime Primary Realtime Clock</Description><StartTime><Timestamp dt:dt=""int"">0</Timestamp><DateUtc dt:dt=""string"">2017-10-09T11:59:05Z</DateUtc></StartTime><FrequencyChanges><FrequencyChange><Frequency dt:dt=""r8"">2923154</Frequency><Timestamp dt:dt=""r8"">12634954953</Timestamp><Current dt:dt=""r8"">0</Current><DateUtc dt:dt=""string"">2017-10-09T11:59:05Z</DateUtc></FrequencyChange></FrequencyChanges></Clock>\n",DualSimon(I)-001002-1,59.955,59.955,1.0.0.518,1,-249379018,Professional,2.0.10.353,2.0.10.353,10/09/2017,09/10/2017 11:59,12:59:05,2.0.10.248,1,1,1,1,CM1,List1,3,NULL,NULL,NULL,3,1,3,b1,BlockList4,18,NULL,NULL,NULL,29,2,18,NULL,NULL,NULL,NULL,NULL,NULL,w,w,TrialProc,CM1Trails,red,red,w,w,1,w,537,1,w,547
DualSimon(I),1002,1,"<?xml version=""1.0""?>\n<Clock xmlns:dt=""urn:schemas-microsoft-com:datatypes""><Description dt:dt=""string"">E-Prime Primary Realtime Clock</Description><StartTime><Timestamp dt:dt=""int"">0</Timestamp><DateUtc dt:dt=""string"">2017-10-09T11:59:05Z</DateUtc></StartTime><FrequencyChanges><FrequencyChange><Frequency dt:dt=""r8"">2923154</Frequency><Timestamp dt:dt=""r8"">12634954953</Timestamp><Current dt:dt=""r8"">0</Current><DateUtc dt:dt=""string"">2017-10-09T11:59:05Z</DateUtc></FrequencyChange></FrequencyChanges></Clock>\n",DualSimon(I)-001002-1,59.955,59.955,1.0.0.518,1,-249379018,Professional,2.0.10.353,2.0.10.353,10/09/2017,09/10/2017 11:59,12:59:05,2.0.10.248,1,1,1,1,CM1,List1,3,NULL,NULL,NULL,3,1,3,b1,BlockList4,19,NULL,NULL,NULL,49,2,19,NULL,NULL,NULL,NULL,NULL,NULL,w,e,TrialProc,CM1Trails,red,blue,w,e,1,w,413,1,e,429
DualSimon(I),1002,1,"<?xml version=""1.0""?>\n<Clock xmlns:dt=""urn:schemas-microsoft-com:datatypes""><Description dt:dt=""string"">E-Prime Primary Realtime Clock</Description><StartTime><Timestamp dt:dt=""int"">0</Timestamp><DateUtc dt:dt=""string"">2017-10-09T11:59:05Z</DateUtc></StartTime><FrequencyChanges><FrequencyChange><Frequency dt:dt=""r8"">2923154</Frequency><Timestamp dt:dt=""r8"">12634954953</Timestamp><Current dt:dt=""r8"">0</Current><DateUtc dt:dt=""string"">2017-10-09T11:59:05Z</DateUtc></FrequencyChange></FrequencyChanges></Clock>\n",DualSimon(I)-001002-1,59.955,59.955,1.0.0.518,1,-249379018,Professional,2.0.10.353,2.0.10.353,10/09/2017,09/10/2017 11:59,12:59:05,2.0.10.248,1,1,1,1,CM1,List1,3,NULL,NULL,NULL,3,1,3,b1,BlockList4,20,NULL,NULL,NULL,52,2,20,NULL,NULL,NULL,NULL,NULL,NULL,w,e,TrialProc,CM1Trails,red,blue,w,e,1,w,336,0,w,620
DualSimon(I),1002,1,"<?xml version=""1.0""?>\n<Clock xmlns:dt=""urn:schemas-microsoft-com:datatypes""><Description dt:dt=""string"">E-Prime Primary Realtime Clock</Description><StartTime><Timestamp dt:dt=""int"">0</Timestamp><DateUtc dt:dt=""string"">2017-10-09T11:59:05Z</DateUtc></StartTime><FrequencyChanges><FrequencyChange><Frequency dt:dt=""r8"">2923154</Frequency><Timestamp dt:dt=""r8"">12634954953</Timestamp><Current dt:dt=""r8"">0</Current><DateUtc dt:dt=""string"">2017-10-09T11:59:05Z</DateUtc></FrequencyChange></FrequencyChanges></Clock>\n",DualSimon(I)-001002-1,59.955,59.955,1.0.0.518,1,-249379018,Professional,2.0.10.353,2.0.10.353,10/09/2017,09/10/2017 11:59,12:59:05,2.0.10.248,1,1,1,1,CM1,List1,3,NULL,NULL,NULL,3,1,3,b1,BlockList4,21,NULL,NULL,NULL,45,2,21,NULL,NULL,NULL,NULL,NULL,NULL,w,e,TrialProc,CM1Trails,red,blue,w,e,1,w,413,1,e,574
DualSimon(I),1002,1,"<?xml version=""1.0""?>\n<Clock xmlns:dt=""urn:schemas-microsoft-com:datatypes""><Description dt:dt=""string"">E-Prime Primary Realtime Clock</Description><StartTime><Timestamp dt:dt=""int"">0</Timestamp><DateUtc dt:dt=""string"">2017-10-09T11:59:05Z</DateUtc></StartTime><FrequencyChanges><FrequencyChange><Frequency dt:dt=""r8"">2923154</Frequency><Timestamp dt:dt=""r8"">12634954953</Timestamp><Current dt:dt=""r8"">0</Current><DateUtc dt:dt=""string"">2017-10-09T11:59:05Z</DateUtc></FrequencyChange></FrequencyChanges></Clock>\n",DualSimon(I)-001002-1,59.955,59.955,1.0.0.518,1,-249379018,Professional,2.0.10.353,2.0.10.353,10/09/2017,09/10/2017 11:59,12:59:05,2.0.10.248,1,1,1,1,CM1,List1,3,NULL,NULL,NULL,3,1,3,b1,BlockList4,22,NULL,NULL,NULL,72,2,22,NULL,NULL,NULL,NULL,NULL,NULL,w,w,TrialProc,CM1Trails,red,red,e,e,1,w,448,1,w,486
DualSimon(I),1002,1,"<?xml version=""1.0""?>\n<Clock xmlns:dt=""urn:schemas-microsoft-com:datatypes""><Description dt:dt=""string"">E-Prime Primary Realtime Clock</Description><StartTime><Timestamp dt:dt=""int"">0</Timestamp><DateUtc dt:dt=""string"">2017-10-09T11:59:05Z</DateUtc></StartTime><FrequencyChanges><FrequencyChange><Frequency dt:dt=""r8"">2923154</Frequency><Timestamp dt:dt=""r8"">12634954953</Timestamp><Current dt:dt=""r8"">0</Current><DateUtc dt:dt=""string"">2017-10-09T11:59:05Z</DateUtc></FrequencyChange></FrequencyChanges></Clock>\n",DualSimon(I)-001002-1,59.955,59.955,1.0.0.518,1,-249379018,Professional,2.0.10.353,2.0.10.353,10/09/2017,09/10/2017 11:59,12:59:05,2.0.10.248,1,1,1,1,CM1,List1,3,NULL,NULL,NULL,3,1,3,b1,BlockList4,23,NULL,NULL,NULL,77,2,23,NULL,NULL,NULL,NULL,NULL,NULL,e,w,TrialProc,CM1Trails,blue,red,w,e,1,e,434,1,w,412
DualSimon(I),1002,1,"<?xml version=""1.0""?>\n<Clock xmlns:dt=""urn:schemas-microsoft-com:datatypes""><Description dt:dt=""string"">E-Prime Primary Realtime Clock</Description><StartTime><Timestamp dt:dt=""int"">0</Timestamp><DateUtc dt:dt=""string"">2017-10-09T11:59:05Z</DateUtc></StartTime><FrequencyChanges><FrequencyChange><Frequency dt:dt=""r8"">2923154</Frequency><Timestamp dt:dt=""r8"">12634954953</Timestamp><Current dt:dt=""r8"">0</Current><DateUtc dt:dt=""string"">2017-10-09T11:59:05Z</DateUtc></FrequencyChange></FrequencyChanges></Clock>\n",DualSimon(I)-001002-1,59.955,59.955,1.0.0.518,1,-249379018,Professional,2.0.10.353,2.0.10.353,10/09/2017,09/10/2017 11:59,12:59:05,2.0.10.248,1,1,1,1,CM1,List1,3,NULL,NULL,NULL,3,1,3,b1,BlockList4,24,NULL,NULL,NULL,23,2,24,NULL,NULL,NULL,NULL,NULL,NULL,w,w,TrialProc,CM1Trails,red,red,w,w,1,w,457,1,w,608
DualSimon(I),1002,1,"<?xml version=""1.0""?>\n<Clock xmlns:dt=""urn:schemas-microsoft-com:datatypes""><Description dt:dt=""string"">E-Prime Primary Realtime Clock</Description><StartTime><Timestamp dt:dt=""int"">0</Timestamp><DateUtc dt:dt=""string"">2017-10-09T11:59:05Z</DateUtc></StartTime><FrequencyChanges><FrequencyChange><Frequency dt:dt=""r8"">2923154</Frequency><Timestamp dt:dt=""r8"">12634954953</Timestamp><Current dt:dt=""r8"">0</Current><DateUtc dt:dt=""string"">2017-10-09T11:59:05Z</DateUtc></FrequencyChange></FrequencyChanges></Clock>\n",DualSimon(I)-001002-1,59.955,59.955,1.0.0.518,1,-249379018,Professional,2.0.10.353,2.0.10.353,10/09/2017,09/10/2017 11:59,12:59:05,2.0.10.248,1,1,1,1,CM1,List1,3,NULL,NULL,NULL,3,1,3,b1,BlockList4,25,NULL,NULL,NULL,83,2,25,NULL,NULL,NULL,NULL,NULL,NULL,e,w,TrialProc,CM1Trails,blue,red,w,e,1,e,582,1,w,438
DualSimon(I),1002,1,"<?xml version=""1.0""?>\n<Clock xmlns:dt=""urn:schemas-microsoft-com:datatypes""><Description dt:dt=""string"">E-Prime Primary Realtime Clock</Description><StartTime><Timestamp dt:dt=""int"">0</Timestamp><DateUtc dt:dt=""string"">2017-10-09T11:59:05Z</DateUtc></StartTime><FrequencyChanges><FrequencyChange><Frequency dt:dt=""r8"">2923154</Frequency><Timestamp dt:dt=""r8"">12634954953</Timestamp><Current dt:dt=""r8"">0</Current><DateUtc dt:dt=""string"">2017-10-09T11:59:05Z</DateUtc></FrequencyChange></FrequencyChanges></Clock>\n",DualSimon(I)-001002-1,59.955,59.955,1.0.0.518,1,-249379018,Professional,2.0.10.353,2.0.10.353,10/09/2017,09/10/2017 11:59,12:59:05,2.0.10.248,1,1,1,1,CM1,List1,3,NULL,NULL,NULL,3,1,3,b1,BlockList4,26,NULL,NULL,NULL,88,2,26,NULL,NULL,NULL,NULL,NULL,NULL,w,e,TrialProc,CM1Trails,red,blue,e,w,1,w,419,1,e,406
DualSimon(I),1002,1,"<?xml version=""1.0""?>\n<Clock xmlns:dt=""urn:schemas-microsoft-com:datatypes""><Description dt:dt=""string"">E-Prime Primary Realtime Clock</Description><StartTime><Timestamp dt:dt=""int"">0</Timestamp><DateUtc dt:dt=""string"">2017-10-09T11:59:05Z</DateUtc></StartTime><FrequencyChanges><FrequencyChange><Frequency dt:dt=""r8"">2923154</Frequency><Timestamp dt:dt=""r8"">12634954953</Timestamp><Current dt:dt=""r8"">0</Current><DateUtc dt:dt=""string"">2017-10-09T11:59:05Z</DateUtc></FrequencyChange></FrequencyChanges></Clock>\n",DualSimon(I)-001002-1,59.955,59.955,1.0.0.518,1,-249379018,Professional,2.0.10.353,2.0.10.353,10/09/2017,09/10/2017 11:59,12:59:05,2.0.10.248,1,1,1,1,CM1,List1,3,NULL,NULL,NULL,3,1,3,b1,BlockList4,27,NULL,NULL,NULL,28,2,27,NULL,NULL,NULL,NULL,NULL,NULL,w,w,TrialProc,CM1Trails,red,red,w,w,1,w,666,1,w,556
DualSimon(I),1002,1,"<?xml version=""1.0""?>\n<Clock xmlns:dt=""urn:schemas-microsoft-com:datatypes""><Description dt:dt=""string"">E-Prime Primary Realtime Clock</Description><StartTime><Timestamp dt:dt=""int"">0</Timestamp><DateUtc dt:dt=""string"">2017-10-09T11:59:05Z</DateUtc></StartTime><FrequencyChanges><FrequencyChange><Frequency dt:dt=""r8"">2923154</Frequency><Timestamp dt:dt=""r8"">12634954953</Timestamp><Current dt:dt=""r8"">0</Current><DateUtc dt:dt=""string"">2017-10-09T11:59:05Z</DateUtc></FrequencyChange></FrequencyChanges></Clock>\n",DualSimon(I)-001002-1,59.955,59.955,1.0.0.518,1,-249379018,Professional,2.0.10.353,2.0.10.353,10/09/2017,09/10/2017 11:59,12:59:05,2.0.10.248,1,1,1,1,CM1,List1,3,NULL,NULL,NULL,3,1,3,b1,BlockList4,28,NULL,NULL,NULL,60,2,28,NULL,NULL,NULL,NULL,NULL,NULL,e,e,TrialProc,CM1Trails,blue,blue,w,w,1,e,388,1,e,446
DualSimon(I),1002,1,"<?xml version=""1.0""?>\n<Clock xmlns:dt=""urn:schemas-microsoft-com:datatypes""><Description dt:dt=""string"">E-Prime Primary Realtime Clock</Description><StartTime><Timestamp dt:dt=""int"">0</Timestamp><DateUtc dt:dt=""string"">2017-10-09T11:59:05Z</DateUtc></StartTime><FrequencyChanges><FrequencyChange><Frequency dt:dt=""r8"">2923154</Frequency><Timestamp dt:dt=""r8"">12634954953</Timestamp><Current dt:dt=""r8"">0</Current><DateUtc dt:dt=""string"">2017-10-09T11:59:05Z</DateUtc></FrequencyChange></FrequencyChanges></Clock>\n",DualSimon(I)-001002-1,59.955,59.955,1.0.0.518,1,-249379018,Professional,2.0.10.353,2.0.10.353,10/09/2017,09/10/2017 11:59,12:59:05,2.0.10.248,1,1,1,1,CM1,List1,3,NULL,NULL,NULL,3,1,3,b1,BlockList4,29,NULL,NULL,NULL,41,2,29,NULL,NULL,NULL,NULL,NULL,NULL,e,w,TrialProc,CM1Trails,blue,red,e,w,1,e,428,1,w,560
DualSimon(I),1002,1,"<?xml version=""1.0""?>\n<Clock xmlns:dt=""urn:schemas-microsoft-com:datatypes""><Description dt:dt=""string"">E-Prime Primary Realtime Clock</Description><StartTime><Timestamp dt:dt=""int"">0</Timestamp><DateUtc dt:dt=""string"">2017-10-09T11:59:05Z</DateUtc></StartTime><FrequencyChanges><FrequencyChange><Frequency dt:dt=""r8"">2923154</Frequency><Timestamp dt:dt=""r8"">12634954953</Timestamp><Current dt:dt=""r8"">0</Current><DateUtc dt:dt=""string"">2017-10-09T11:59:05Z</DateUtc></FrequencyChange></FrequencyChanges></Clock>\n",DualSimon(I)-001002-1,59.955,59.955,1.0.0.518,1,-249379018,Professional,2.0.10.353,2.0.10.353,10/09/2017,09/10/2017 11:59,12:59:05,2.0.10.248,1,1,1,1,CM1,List1,3,NULL,NULL,NULL,3,1,3,b1,BlockList4,30,NULL,NULL,NULL,67,2,30,NULL,NULL,NULL,NULL,NULL,NULL,w,w,TrialProc,CM1Trails,red,red,e,e,1,w,441,1,w,425
DualSimon(I),1002,1,"<?xml version=""1.0""?>\n<Clock xmlns:dt=""urn:schemas-microsoft-com:datatypes""><Description dt:dt=""string"">E-Prime Primary Realtime Clock</Description><StartTime><Timestamp dt:dt=""int"">0</Timestamp><DateUtc dt:dt=""string"">2017-10-09T11:59:05Z</DateUtc></StartTime><FrequencyChanges><FrequencyChange><Frequency dt:dt=""r8"">2923154</Frequency><Timestamp dt:dt=""r8"">12634954953</Timestamp><Current dt:dt=""r8"">0</Current><DateUtc dt:dt=""string"">2017-10-09T11:59:05Z</DateUtc></FrequencyChange></FrequencyChanges></Clock>\n",DualSimon(I)-001002-1,59.955,59.955,1.0.0.518,1,-249379018,Professional,2.0.10.353,2.0.10.353,10/09/2017,09/10/2017 11:59,12:59:05,2.0.10.248,1,1,1,1,CM1,List1,3,NULL,NULL,NULL,3,1,3,b1,BlockList4,31,NULL,NULL,NULL,8,2,31,NULL,NULL,NULL,NULL,NULL,NULL,w,e,TrialProc,CM1Trails,red,blue,e,w,1,w,420,1,e,473
DualSimon(I),1002,1,"<?xml version=""1.0""?>\n<Clock xmlns:dt=""urn:schemas-microsoft-com:datatypes""><Description dt:dt=""string"">E-Prime Primary Realtime Clock</Description><StartTime><Timestamp dt:dt=""int"">0</Timestamp><DateUtc dt:dt=""string"">2017-10-09T11:59:05Z</DateUtc></StartTime><FrequencyChanges><FrequencyChange><Frequency dt:dt=""r8"">2923154</Frequency><Timestamp dt:dt=""r8"">12634954953</Timestamp><Current dt:dt=""r8"">0</Current><DateUtc dt:dt=""string"">2017-10-09T11:59:05Z</DateUtc></FrequencyChange></FrequencyChanges></Clock>\n",DualSimon(I)-001002-1,59.955,59.955,1.0.0.518,1,-249379018,Professional,2.0.10.353,2.0.10.353,10/09/2017,09/10/2017 11:59,12:59:05,2.0.10.248,1,1,1,1,CM1,List1,3,NULL,NULL,NULL,3,1,3,b1,BlockList4,32,NULL,NULL,NULL,56,2,32,NULL,NULL,NULL,NULL,NULL,NULL,e,e,TrialProc,CM1Trails,blue,blue,w,w,1,e,515,1,e,537
DualSimon(I),1002,1,"<?xml version=""1.0""?>\n<Clock xmlns:dt=""urn:schemas-microsoft-com:datatypes""><Description dt:dt=""string"">E-Prime Primary Realtime Clock</Description><StartTime><Timestamp dt:dt=""int"">0</Timestamp><DateUtc dt:dt=""string"">2017-10-09T11:59:05Z</DateUtc></StartTime><FrequencyChanges><FrequencyChange><Frequency dt:dt=""r8"">2923154</Frequency><Timestamp dt:dt=""r8"">12634954953</Timestamp><Current dt:dt=""r8"">0</Current><DateUtc dt:dt=""string"">2017-10-09T11:59:05Z</DateUtc></FrequencyChange></FrequencyChanges></Clock>\n",DualSimon(I)-001002-1,59.955,59.955,1.0.0.518,1,-249379018,Professional,2.0.10.353,2.0.10.353,10/09/2017,09/10/2017 11:59,12:59:05,2.0.10.248,1,1,1,1,CM1,List1,3,NULL,NULL,NULL,3,1,3,b1,BlockList4,33,NULL,NULL,NULL,55,2,33,NULL,NULL,NULL,NULL,NULL,NULL,e,e,TrialProc,CM1Trails,blue,blue,w,w,1,e,454,1,e,371
DualSimon(I),1002,1,"<?xml version=""1.0""?>\n<Clock xmlns:dt=""urn:schemas-microsoft-com:datatypes""><Description dt:dt=""string"">E-Prime Primary Realtime Clock</Description><StartTime><Timestamp dt:dt=""int"">0</Timestamp><DateUtc dt:dt=""string"">2017-10-09T11:59:05Z</DateUtc></StartTime><FrequencyChanges><FrequencyChange><Frequency dt:dt=""r8"">2923154</Frequency><Timestamp dt:dt=""r8"">12634954953</Timestamp><Current dt:dt=""r8"">0</Current><DateUtc dt:dt=""string"">2017-10-09T11:59:05Z</DateUtc></FrequencyChange></FrequencyChanges></Clock>\n",DualSimon(I)-001002-1,59.955,59.955,1.0.0.518,1,-249379018,Professional,2.0.10.353,2.0.10.353,10/09/2017,09/10/2017 11:59,12:59:05,2.0.10.248,1,1,1,1,CM1,List1,3,NULL,NULL,NULL,3,1,3,b1,BlockList4,34,NULL,NULL,NULL,48,2,34,NULL,NULL,NULL,NULL,NULL,NULL,w,e,TrialProc,CM1Trails,red,blue,w,e,1,w,435,1,e,322
DualSimon(I),1002,1,"<?xml version=""1.0""?>\n<Clock xmlns:dt=""urn:schemas-microsoft-com:datatypes""><Description dt:dt=""string"">E-Prime Primary Realtime Clock</Description><StartTime><Timestamp dt:dt=""int"">0</Timestamp><DateUtc dt:dt=""string"">2017-10-09T11:59:05Z</DateUtc></StartTime><FrequencyChanges><FrequencyChange><Frequency dt:dt=""r8"">2923154</Frequency><Timestamp dt:dt=""r8"">12634954953</Timestamp><Current dt:dt=""r8"">0</Current><DateUtc dt:dt=""string"">2017-10-09T11:59:05Z</DateUtc></FrequencyChange></FrequencyChanges></Clock>\n",DualSimon(I)-001002-1,59.955,59.955,1.0.0.518,1,-249379018,Professional,2.0.10.353,2.0.10.353,10/09/2017,09/10/2017 11:59,12:59:05,2.0.10.248,1,1,1,1,CM1,List1,3,NULL,NULL,NULL,3,1,3,b1,BlockList4,35,NULL,NULL,NULL,35,2,35,NULL,NULL,NULL,NULL,NULL,NULL,e,w,TrialProc,CM1Trails,blue,red,e,w,1,e,357,1,w,364
DualSimon(I),1002,1,"<?xml version=""1.0""?>\n<Clock xmlns:dt=""urn:schemas-microsoft-com:datatypes""><Description dt:dt=""string"">E-Prime Primary Realtime Clock</Description><StartTime><Timestamp dt:dt=""int"">0</Timestamp><DateUtc dt:dt=""string"">2017-10-09T11:59:05Z</DateUtc></StartTime><FrequencyChanges><FrequencyChange><Frequency dt:dt=""r8"">2923154</Frequency><Timestamp dt:dt=""r8"">12634954953</Timestamp><Current dt:dt=""r8"">0</Current><DateUtc dt:dt=""string"">2017-10-09T11:59:05Z</DateUtc></FrequencyChange></FrequencyChanges></Clock>\n",DualSimon(I)-001002-1,59.955,59.955,1.0.0.518,1,-249379018,Professional,2.0.10.353,2.0.10.353,10/09/2017,09/10/2017 11:59,12:59:05,2.0.10.248,1,1,1,1,CM1,List1,3,NULL,NULL,NULL,3,1,3,b1,BlockList4,36,NULL,NULL,NULL,17,2,36,NULL,NULL,NULL,NULL,NULL,NULL,e,e,TrialProc,CM1Trails,blue,blue,e,e,1,e,347,1,e,351
DualSimon(I),1002,1,"<?xml version=""1.0""?>\n<Clock xmlns:dt=""urn:schemas-microsoft-com:datatypes""><Description dt:dt=""string"">E-Prime Primary Realtime Clock</Description><StartTime><Timestamp dt:dt=""int"">0</Timestamp><DateUtc dt:dt=""string"">2017-10-09T11:59:05Z</DateUtc></StartTime><FrequencyChanges><FrequencyChange><Frequency dt:dt=""r8"">2923154</Frequency><Timestamp dt:dt=""r8"">12634954953</Timestamp><Current dt:dt=""r8"">0</Current><DateUtc dt:dt=""string"">2017-10-09T11:59:05Z</DateUtc></FrequencyChange></FrequencyChanges></Clock>\n",DualSimon(I)-001002-1,59.955,59.955,1.0.0.518,1,-249379018,Professional,2.0.10.353,2.0.10.353,10/09/2017,09/10/2017 11:59,12:59:05,2.0.10.248,1,1,1,1,CM1,List1,3,NULL,NULL,NULL,3,1,3,b1,BlockList4,37,NULL,NULL,NULL,42,2,37,NULL,NULL,NULL,NULL,NULL,NULL,w,e,TrialProc,CM1Trails,red,blue,w,e,1,w,267,1,e,360
DualSimon(I),1002,1,"<?xml version=""1.0""?>\n<Clock xmlns:dt=""urn:schemas-microsoft-com:datatypes""><Description dt:dt=""string"">E-Prime Primary Realtime Clock</Description><StartTime><Timestamp dt:dt=""int"">0</Timestamp><DateUtc dt:dt=""string"">2017-10-09T11:59:05Z</DateUtc></StartTime><FrequencyChanges><FrequencyChange><Frequency dt:dt=""r8"">2923154</Frequency><Timestamp dt:dt=""r8"">12634954953</Timestamp><Current dt:dt=""r8"">0</Current><DateUtc dt:dt=""string"">2017-10-09T11:59:05Z</DateUtc></FrequencyChange></FrequencyChanges></Clock>\n",DualSimon(I)-001002-1,59.955,59.955,1.0.0.518,1,-249379018,Professional,2.0.10.353,2.0.10.353,10/09/2017,09/10/2017 11:59,12:59:05,2.0.10.248,1,1,1,1,CM1,List1,3,NULL,NULL,NULL,3,1,3,b1,BlockList4,38,NULL,NULL,NULL,82,2,38,NULL,NULL,NULL,NULL,NULL,NULL,e,w,TrialProc,CM1Trails,blue,red,w,e,1,e,592,1,w,485
DualSimon(I),1002,1,"<?xml version=""1.0""?>\n<Clock xmlns:dt=""urn:schemas-microsoft-com:datatypes""><Description dt:dt=""string"">E-Prime Primary Realtime Clock</Description><StartTime><Timestamp dt:dt=""int"">0</Timestamp><DateUtc dt:dt=""string"">2017-10-09T11:59:05Z</DateUtc></StartTime><FrequencyChanges><FrequencyChange><Frequency dt:dt=""r8"">2923154</Frequency><Timestamp dt:dt=""r8"">12634954953</Timestamp><Current dt:dt=""r8"">0</Current><DateUtc dt:dt=""string"">2017-10-09T11:59:05Z</DateUtc></FrequencyChange></FrequencyChanges></Clock>\n",DualSimon(I)-001002-1,59.955,59.955,1.0.0.518,1,-249379018,Professional,2.0.10.353,2.0.10.353,10/09/2017,09/10/2017 11:59,12:59:05,2.0.10.248,1,1,1,1,CM1,List1,3,NULL,NULL,NULL,3,1,3,b1,BlockList4,39,NULL,NULL,NULL,69,2,39,NULL,NULL,NULL,NULL,NULL,NULL,w,w,TrialProc,CM1Trails,red,red,e,e,1,w,280,1,w,349
DualSimon(I),1002,1,"<?xml version=""1.0""?>\n<Clock xmlns:dt=""urn:schemas-microsoft-com:datatypes""><Description dt:dt=""string"">E-Prime Primary Realtime Clock</Description><StartTime><Timestamp dt:dt=""int"">0</Timestamp><DateUtc dt:dt=""string"">2017-10-09T11:59:05Z</DateUtc></StartTime><FrequencyChanges><FrequencyChange><Frequency dt:dt=""r8"">2923154</Frequency><Timestamp dt:dt=""r8"">12634954953</Timestamp><Current dt:dt=""r8"">0</Current><DateUtc dt:dt=""string"">2017-10-09T11:59:05Z</DateUtc></FrequencyChange></FrequencyChanges></Clock>\n",DualSimon(I)-001002-1,59.955,59.955,1.0.0.518,1,-249379018,Professional,2.0.10.353,2.0.10.353,10/09/2017,09/10/2017 11:59,12:59:05,2.0.10.248,1,1,1,1,CM1,List1,3,NULL,NULL,NULL,3,1,3,b1,BlockList4,40,NULL,NULL,NULL,6,2,40,NULL,NULL,NULL,NULL,NULL,NULL,w,w,TrialProc,CM1Trails,red,red,e,e,0,e,297,1,w,468
DualSimon(I),1002,1,"<?xml version=""1.0""?>\n<Clock xmlns:dt=""urn:schemas-microsoft-com:datatypes""><Description dt:dt=""string"">E-Prime Primary Realtime Clock</Description><StartTime><Timestamp dt:dt=""int"">0</Timestamp><DateUtc dt:dt=""string"">2017-10-09T11:59:05Z</DateUtc></StartTime><FrequencyChanges><FrequencyChange><Frequency dt:dt=""r8"">2923154</Frequency><Timestamp dt:dt=""r8"">12634954953</Timestamp><Current dt:dt=""r8"">0</Current><DateUtc dt:dt=""string"">2017-10-09T11:59:05Z</DateUtc></FrequencyChange></FrequencyChanges></Clock>\n",DualSimon(I)-001002-1,59.955,59.955,1.0.0.518,1,-249379018,Professional,2.0.10.353,2.0.10.353,10/09/2017,09/10/2017 11:59,12:59:05,2.0.10.248,1,1,1,1,CM1,List1,3,NULL,NULL,NULL,3,1,3,b1,BlockList4,41,NULL,NULL,NULL,54,2,41,NULL,NULL,NULL,NULL,NULL,NULL,e,e,TrialProc,CM1Trails,blue,blue,w,w,0,w,483,1,e,411
DualSimon(I),1002,1,"<?xml version=""1.0""?>\n<Clock xmlns:dt=""urn:schemas-microsoft-com:datatypes""><Description dt:dt=""string"">E-Prime Primary Realtime Clock</Description><StartTime><Timestamp dt:dt=""int"">0</Timestamp><DateUtc dt:dt=""string"">2017-10-09T11:59:05Z</DateUtc></StartTime><FrequencyChanges><FrequencyChange><Frequency dt:dt=""r8"">2923154</Frequency><Timestamp dt:dt=""r8"">12634954953</Timestamp><Current dt:dt=""r8"">0</Current><DateUtc dt:dt=""string"">2017-10-09T11:59:05Z</DateUtc></FrequencyChange></FrequencyChanges></Clock>\n",DualSimon(I)-001002-1,59.955,59.955,1.0.0.518,1,-249379018,Professional,2.0.10.353,2.0.10.353,10/09/2017,09/10/2017 11:59,12:59:05,2.0.10.248,1,1,1,1,CM1,List1,3,NULL,NULL,NULL,3,1,3,b1,BlockList4,42,NULL,NULL,NULL,19,2,42,NULL,NULL,NULL,NULL,NULL,NULL,e,e,TrialProc,CM1Trails,blue,blue,e,e,1,e,1239,1,e,389
DualSimon(I),1002,1,"<?xml version=""1.0""?>\n<Clock xmlns:dt=""urn:schemas-microsoft-com:datatypes""><Description dt:dt=""string"">E-Prime Primary Realtime Clock</Description><StartTime><Timestamp dt:dt=""int"">0</Timestamp><DateUtc dt:dt=""string"">2017-10-09T11:59:05Z</DateUtc></StartTime><FrequencyChanges><FrequencyChange><Frequency dt:dt=""r8"">2923154</Frequency><Timestamp dt:dt=""r8"">12634954953</Timestamp><Current dt:dt=""r8"">0</Current><DateUtc dt:dt=""string"">2017-10-09T11:59:05Z</DateUtc></FrequencyChange></FrequencyChanges></Clock>\n",DualSimon(I)-001002-1,59.955,59.955,1.0.0.518,1,-249379018,Professional,2.0.10.353,2.0.10.353,10/09/2017,09/10/2017 11:59,12:59:05,2.0.10.248,1,1,1,1,CM1,List1,3,NULL,NULL,NULL,3,1,3,b1,BlockList4,43,NULL,NULL,NULL,51,2,43,NULL,NULL,NULL,NULL,NULL,NULL,w,e,TrialProc,CM1Trails,red,blue,w,e,1,w,394,1,e,334
DualSimon(I),1002,1,"<?xml version=""1.0""?>\n<Clock xmlns:dt=""urn:schemas-microsoft-com:datatypes""><Description dt:dt=""string"">E-Prime Primary Realtime Clock</Description><StartTime><Timestamp dt:dt=""int"">0</Timestamp><DateUtc dt:dt=""string"">2017-10-09T11:59:05Z</DateUtc></StartTime><FrequencyChanges><FrequencyChange><Frequency dt:dt=""r8"">2923154</Frequency><Timestamp dt:dt=""r8"">12634954953</Timestamp><Current dt:dt=""r8"">0</Current><DateUtc dt:dt=""string"">2017-10-09T11:59:05Z</DateUtc></FrequencyChange></FrequencyChanges></Clock>\n",DualSimon(I)-001002-1,59.955,59.955,1.0.0.518,1,-249379018,Professional,2.0.10.353,2.0.10.353,10/09/2017,09/10/2017 11:59,12:59:05,2.0.10.248,1,1,1,1,CM1,List1,3,NULL,NULL,NULL,3,1,3,b1,BlockList4,44,NULL,NULL,NULL,27,2,44,NULL,NULL,NULL,NULL,NULL,NULL,w,w,TrialProc,CM1Trails,red,red,w,w,1,w,356,1,w,410
DualSimon(I),1002,1,"<?xml version=""1.0""?>\n<Clock xmlns:dt=""urn:schemas-microsoft-com:datatypes""><Description dt:dt=""string"">E-Prime Primary Realtime Clock</Description><StartTime><Timestamp dt:dt=""int"">0</Timestamp><DateUtc dt:dt=""string"">2017-10-09T11:59:05Z</DateUtc></StartTime><FrequencyChanges><FrequencyChange><Frequency dt:dt=""r8"">2923154</Frequency><Timestamp dt:dt=""r8"">12634954953</Timestamp><Current dt:dt=""r8"">0</Current><DateUtc dt:dt=""string"">2017-10-09T11:59:05Z</DateUtc></FrequencyChange></FrequencyChanges></Clock>\n",DualSimon(I)-001002-1,59.955,59.955,1.0.0.518,1,-249379018,Professional,2.0.10.353,2.0.10.353,10/09/2017,09/10/2017 11:59,12:59:05,2.0.10.248,1,1,1,1,CM1,List1,3,NULL,NULL,NULL,3,1,3,b1,BlockList4,45,NULL,NULL,NULL,76,2,45,NULL,NULL,NULL,NULL,NULL,NULL,e,w,TrialProc,CM1Trails,blue,red,w,e,1,e,575,1,w,462
DualSimon(I),1002,1,"<?xml version=""1.0""?>\n<Clock xmlns:dt=""urn:schemas-microsoft-com:datatypes""><Description dt:dt=""string"">E-Prime Primary Realtime Clock</Description><StartTime><Timestamp dt:dt=""int"">0</Timestamp><DateUtc dt:dt=""string"">2017-10-09T11:59:05Z</DateUtc></StartTime><FrequencyChanges><FrequencyChange><Frequency dt:dt=""r8"">2923154</Frequency><Timestamp dt:dt=""r8"">12634954953</Timestamp><Current dt:dt=""r8"">0</Current><DateUtc dt:dt=""string"">2017-10-09T11:59:05Z</DateUtc></FrequencyChange></FrequencyChanges></Clock>\n",DualSimon(I)-001002-1,59.955,59.955,1.0.0.518,1,-249379018,Professional,2.0.10.353,2.0.10.353,10/09/2017,09/10/2017 11:59,12:59:05,2.0.10.248,1,1,1,1,CM1,List1,3,NULL,NULL,NULL,3,1,3,b1,BlockList4,46,NULL,NULL,NULL,70,2,46,NULL,NULL,NULL,NULL,NULL,NULL,w,w,TrialProc,CM1Trails,red,red,e,e,1,w,484,1,w,622
DualSimon(I),1002,1,"<?xml version=""1.0""?>\n<Clock xmlns:dt=""urn:schemas-microsoft-com:datatypes""><Description dt:dt=""string"">E-Prime Primary Realtime Clock</Description><StartTime><Timestamp dt:dt=""int"">0</Timestamp><DateUtc dt:dt=""string"">2017-10-09T11:59:05Z</DateUtc></StartTime><FrequencyChanges><FrequencyChange><Frequency dt:dt=""r8"">2923154</Frequency><Timestamp dt:dt=""r8"">12634954953</Timestamp><Current dt:dt=""r8"">0</Current><DateUtc dt:dt=""string"">2017-10-09T11:59:05Z</DateUtc></FrequencyChange></FrequencyChanges></Clock>\n",DualSimon(I)-001002-1,59.955,59.955,1.0.0.518,1,-249379018,Professional,2.0.10.353,2.0.10.353,10/09/2017,09/10/2017 11:59,12:59:05,2.0.10.248,1,1,1,1,CM1,List1,3,NULL,NULL,NULL,3,1,3,b1,BlockList4,47,NULL,NULL,NULL,80,2,47,NULL,NULL,NULL,NULL,NULL,NULL,e,w,TrialProc,CM1Trails,blue,red,w,e,1,e,462,1,w,378
DualSimon(I),1002,1,"<?xml version=""1.0""?>\n<Clock xmlns:dt=""urn:schemas-microsoft-com:datatypes""><Description dt:dt=""string"">E-Prime Primary Realtime Clock</Description><StartTime><Timestamp dt:dt=""int"">0</Timestamp><DateUtc dt:dt=""string"">2017-10-09T11:59:05Z</DateUtc></StartTime><FrequencyChanges><FrequencyChange><Frequency dt:dt=""r8"">2923154</Frequency><Timestamp dt:dt=""r8"">12634954953</Timestamp><Current dt:dt=""r8"">0</Current><DateUtc dt:dt=""string"">2017-10-09T11:59:05Z</DateUtc></FrequencyChange></FrequencyChanges></Clock>\n",DualSimon(I)-001002-1,59.955,59.955,1.0.0.518,1,-249379018,Professional,2.0.10.353,2.0.10.353,10/09/2017,09/10/2017 11:59,12:59:05,2.0.10.248,1,1,1,1,CM1,List1,3,NULL,NULL,NULL,3,1,3,b1,BlockList4,48,NULL,NULL,NULL,2,2,48,NULL,NULL,NULL,NULL,NULL,NULL,w,w,TrialProc,CM1Trails,red,red,w,w,1,w,980,1,w,364
DualSimon(I),1002,1,"<?xml version=""1.0""?>\n<Clock xmlns:dt=""urn:schemas-microsoft-com:datatypes""><Description dt:dt=""string"">E-Prime Primary Realtime Clock</Description><StartTime><Timestamp dt:dt=""int"">0</Timestamp><DateUtc dt:dt=""string"">2017-10-09T11:59:05Z</DateUtc></StartTime><FrequencyChanges><FrequencyChange><Frequency dt:dt=""r8"">2923154</Frequency><Timestamp dt:dt=""r8"">12634954953</Timestamp><Current dt:dt=""r8"">0</Current><DateUtc dt:dt=""string"">2017-10-09T11:59:05Z</DateUtc></FrequencyChange></FrequencyChanges></Clock>\n",DualSimon(I)-001002-1,59.955,59.955,1.0.0.518,1,-249379018,Professional,2.0.10.353,2.0.10.353,10/09/2017,09/10/2017 11:59,12:59:05,2.0.10.248,1,1,1,1,CM1,List1,3,NULL,NULL,NULL,3,1,3,b1,BlockList4,49,NULL,NULL,NULL,74,2,49,NULL,NULL,NULL,NULL,NULL,NULL,w,w,TrialProc,CM1Trails,red,red,e,e,1,w,2357,1,w,343
DualSimon(I),1002,1,"<?xml version=""1.0""?>\n<Clock xmlns:dt=""urn:schemas-microsoft-com:datatypes""><Description dt:dt=""string"">E-Prime Primary Realtime Clock</Description><StartTime><Timestamp dt:dt=""int"">0</Timestamp><DateUtc dt:dt=""string"">2017-10-09T11:59:05Z</DateUtc></StartTime><FrequencyChanges><FrequencyChange><Frequency dt:dt=""r8"">2923154</Frequency><Timestamp dt:dt=""r8"">12634954953</Timestamp><Current dt:dt=""r8"">0</Current><DateUtc dt:dt=""string"">2017-10-09T11:59:05Z</DateUtc></FrequencyChange></FrequencyChanges></Clock>\n",DualSimon(I)-001002-1,59.955,59.955,1.0.0.518,1,-249379018,Professional,2.0.10.353,2.0.10.353,10/09/2017,09/10/2017 11:59,12:59:05,2.0.10.248,1,1,1,1,CM1,List1,3,NULL,NULL,NULL,3,1,3,b1,BlockList4,50,NULL,NULL,NULL,90,2,50,NULL,NULL,NULL,NULL,NULL,NULL,w,e,TrialProc,CM1Trails,red,blue,e,w,1,w,523,1,e,424
DualSimon(I),1002,1,"<?xml version=""1.0""?>\n<Clock xmlns:dt=""urn:schemas-microsoft-com:datatypes""><Description dt:dt=""string"">E-Prime Primary Realtime Clock</Description><StartTime><Timestamp dt:dt=""int"">0</Timestamp><DateUtc dt:dt=""string"">2017-10-09T11:59:05Z</DateUtc></StartTime><FrequencyChanges><FrequencyChange><Frequency dt:dt=""r8"">2923154</Frequency><Timestamp dt:dt=""r8"">12634954953</Timestamp><Current dt:dt=""r8"">0</Current><DateUtc dt:dt=""string"">2017-10-09T11:59:05Z</DateUtc></FrequencyChange></FrequencyChanges></Clock>\n",DualSimon(I)-001002-1,59.955,59.955,1.0.0.518,1,-249379018,Professional,2.0.10.353,2.0.10.353,10/09/2017,09/10/2017 11:59,12:59:05,2.0.10.248,1,1,1,1,CM1,List1,3,NULL,NULL,NULL,3,1,3,b1,BlockList4,51,NULL,NULL,NULL,66,2,51,NULL,NULL,NULL,NULL,NULL,NULL,w,w,TrialProc,CM1Trails,red,red,e,e,1,w,469,1,w,850
DualSimon(I),1002,1,"<?xml version=""1.0""?>\n<Clock xmlns:dt=""urn:schemas-microsoft-com:datatypes""><Description dt:dt=""string"">E-Prime Primary Realtime Clock</Description><StartTime><Timestamp dt:dt=""int"">0</Timestamp><DateUtc dt:dt=""string"">2017-10-09T11:59:05Z</DateUtc></StartTime><FrequencyChanges><FrequencyChange><Frequency dt:dt=""r8"">2923154</Frequency><Timestamp dt:dt=""r8"">12634954953</Timestamp><Current dt:dt=""r8"">0</Current><DateUtc dt:dt=""string"">2017-10-09T11:59:05Z</DateUtc></FrequencyChange></FrequencyChanges></Clock>\n",DualSimon(I)-001002-1,59.955,59.955,1.0.0.518,1,-249379018,Professional,2.0.10.353,2.0.10.353,10/09/2017,09/10/2017 11:59,12:59:05,2.0.10.248,1,1,1,1,CM1,List1,3,NULL,NULL,NULL,3,1,3,b1,BlockList4,52,NULL,NULL,NULL,65,2,52,NULL,NULL,NULL,NULL,NULL,NULL,w,w,TrialProc,CM1Trails,red,red,e,e,1,w,425,1,w,432
DualSimon(I),1002,1,"<?xml version=""1.0""?>\n<Clock xmlns:dt=""urn:schemas-microsoft-com:datatypes""><Description dt:dt=""string"">E-Prime Primary Realtime Clock</Description><StartTime><Timestamp dt:dt=""int"">0</Timestamp><DateUtc dt:dt=""string"">2017-10-09T11:59:05Z</DateUtc></StartTime><FrequencyChanges><FrequencyChange><Frequency dt:dt=""r8"">2923154</Frequency><Timestamp dt:dt=""r8"">12634954953</Timestamp><Current dt:dt=""r8"">0</Current><DateUtc dt:dt=""string"">2017-10-09T11:59:05Z</DateUtc></FrequencyChange></FrequencyChanges></Clock>\n",DualSimon(I)-001002-1,59.955,59.955,1.0.0.518,1,-249379018,Professional,2.0.10.353,2.0.10.353,10/09/2017,09/10/2017 11:59,12:59:05,2.0.10.248,1,1,1,1,CM1,List1,3,NULL,NULL,NULL,3,1,3,b1,BlockList4,53,NULL,NULL,NULL,96,2,53,NULL,NULL,NULL,NULL,NULL,NULL,w,e,TrialProc,CM1Trails,red,blue,e,w,1,w,281,1,e,405
DualSimon(I),1002,1,"<?xml version=""1.0""?>\n<Clock xmlns:dt=""urn:schemas-microsoft-com:datatypes""><Description dt:dt=""string"">E-Prime Primary Realtime Clock</Description><StartTime><Timestamp dt:dt=""int"">0</Timestamp><DateUtc dt:dt=""string"">2017-10-09T11:59:05Z</DateUtc></StartTime><FrequencyChanges><FrequencyChange><Frequency dt:dt=""r8"">2923154</Frequency><Timestamp dt:dt=""r8"">12634954953</Timestamp><Current dt:dt=""r8"">0</Current><DateUtc dt:dt=""string"">2017-10-09T11:59:05Z</DateUtc></FrequencyChange></FrequencyChanges></Clock>\n",DualSimon(I)-001002-1,59.955,59.955,1.0.0.518,1,-249379018,Professional,2.0.10.353,2.0.10.353,10/09/2017,09/10/2017 11:59,12:59:05,2.0.10.248,1,1,1,1,CM1,List1,3,NULL,NULL,NULL,3,1,3,b1,BlockList4,54,NULL,NULL,NULL,18,2,54,NULL,NULL,NULL,NULL,NULL,NULL,e,e,TrialProc,CM1Trails,blue,blue,e,e,1,e,467,0,w,466
DualSimon(I),1002,1,"<?xml version=""1.0""?>\n<Clock xmlns:dt=""urn:schemas-microsoft-com:datatypes""><Description dt:dt=""string"">E-Prime Primary Realtime Clock</Description><StartTime><Timestamp dt:dt=""int"">0</Timestamp><DateUtc dt:dt=""string"">2017-10-09T11:59:05Z</DateUtc></StartTime><FrequencyChanges><FrequencyChange><Frequency dt:dt=""r8"">2923154</Frequency><Timestamp dt:dt=""r8"">12634954953</Timestamp><Current dt:dt=""r8"">0</Current><DateUtc dt:dt=""string"">2017-10-09T11:59:05Z</DateUtc></FrequencyChange></FrequencyChanges></Clock>\n",DualSimon(I)-001002-1,59.955,59.955,1.0.0.518,1,-249379018,Professional,2.0.10.353,2.0.10.353,10/09/2017,09/10/2017 11:59,12:59:05,2.0.10.248,1,1,1,1,CM1,List1,3,NULL,NULL,NULL,3,1,3,b1,BlockList4,55,NULL,NULL,NULL,13,2,55,NULL,NULL,NULL,NULL,NULL,NULL,e,e,TrialProc,CM1Trails,blue,blue,e,e,1,e,352,1,e,355
DualSimon(I),1002,1,"<?xml version=""1.0""?>\n<Clock xmlns:dt=""urn:schemas-microsoft-com:datatypes""><Description dt:dt=""string"">E-Prime Primary Realtime Clock</Description><StartTime><Timestamp dt:dt=""int"">0</Timestamp><DateUtc dt:dt=""string"">2017-10-09T11:59:05Z</DateUtc></StartTime><FrequencyChanges><FrequencyChange><Frequency dt:dt=""r8"">2923154</Frequency><Timestamp dt:dt=""r8"">12634954953</Timestamp><Current dt:dt=""r8"">0</Current><DateUtc dt:dt=""string"">2017-10-09T11:59:05Z</DateUtc></FrequencyChange></FrequencyChanges></Clock>\n",DualSimon(I)-001002-1,59.955,59.955,1.0.0.518,1,-249379018,Professional,2.0.10.353,2.0.10.353,10/09/2017,09/10/2017 11:59,12:59:05,2.0.10.248,1,1,1,1,CM1,List1,3,NULL,NULL,NULL,3,1,3,b1,BlockList4,56,NULL,NULL,NULL,16,2,56,NULL,NULL,NULL,NULL,NULL,NULL,e,e,TrialProc,CM1Trails,blue,blue,e,e,1,e,415,1,e,356
DualSimon(I),1002,1,"<?xml version=""1.0""?>\n<Clock xmlns:dt=""urn:schemas-microsoft-com:datatypes""><Description dt:dt=""string"">E-Prime Primary Realtime Clock</Description><StartTime><Timestamp dt:dt=""int"">0</Timestamp><DateUtc dt:dt=""string"">2017-10-09T11:59:05Z</DateUtc></StartTime><FrequencyChanges><FrequencyChange><Frequency dt:dt=""r8"">2923154</Frequency><Timestamp dt:dt=""r8"">12634954953</Timestamp><Current dt:dt=""r8"">0</Current><DateUtc dt:dt=""string"">2017-10-09T11:59:05Z</DateUtc></FrequencyChange></FrequencyChanges></Clock>\n",DualSimon(I)-001002-1,59.955,59.955,1.0.0.518,1,-249379018,Professional,2.0.10.353,2.0.10.353,10/09/2017,09/10/2017 11:59,12:59:05,2.0.10.248,1,1,1,1,CM1,List1,3,NULL,NULL,NULL,3,1,3,b1,BlockList4,57,NULL,NULL,NULL,71,2,57,NULL,NULL,NULL,NULL,NULL,NULL,w,w,TrialProc,CM1Trails,red,red,e,e,1,w,422,1,w,390
DualSimon(I),1002,1,"<?xml version=""1.0""?>\n<Clock xmlns:dt=""urn:schemas-microsoft-com:datatypes""><Description dt:dt=""string"">E-Prime Primary Realtime Clock</Description><StartTime><Timestamp dt:dt=""int"">0</Timestamp><DateUtc dt:dt=""string"">2017-10-09T11:59:05Z</DateUtc></StartTime><FrequencyChanges><FrequencyChange><Frequency dt:dt=""r8"">2923154</Frequency><Timestamp dt:dt=""r8"">12634954953</Timestamp><Current dt:dt=""r8"">0</Current><DateUtc dt:dt=""string"">2017-10-09T11:59:05Z</DateUtc></FrequencyChange></FrequencyChanges></Clock>\n",DualSimon(I)-001002-1,59.955,59.955,1.0.0.518,1,-249379018,Professional,2.0.10.353,2.0.10.353,10/09/2017,09/10/2017 11:59,12:59:05,2.0.10.248,1,1,1,1,CM1,List1,3,NULL,NULL,NULL,3,1,3,b1,BlockList4,58,NULL,NULL,NULL,30,2,58,NULL,NULL,NULL,NULL,NULL,NULL,w,w,TrialProc,CM1Trails,red,red,w,w,1,w,847,0,e,448
DualSimon(I),1002,1,"<?xml version=""1.0""?>\n<Clock xmlns:dt=""urn:schemas-microsoft-com:datatypes""><Description dt:dt=""string"">E-Prime Primary Realtime Clock</Description><StartTime><Timestamp dt:dt=""int"">0</Timestamp><DateUtc dt:dt=""string"">2017-10-09T11:59:05Z</DateUtc></StartTime><FrequencyChanges><FrequencyChange><Frequency dt:dt=""r8"">2923154</Frequency><Timestamp dt:dt=""r8"">12634954953</Timestamp><Current dt:dt=""r8"">0</Current><DateUtc dt:dt=""string"">2017-10-09T11:59:05Z</DateUtc></FrequencyChange></FrequencyChanges></Clock>\n",DualSimon(I)-001002-1,59.955,59.955,1.0.0.518,1,-249379018,Professional,2.0.10.353,2.0.10.353,10/09/2017,09/10/2017 11:59,12:59:05,2.0.10.248,1,1,1,1,CM1,List1,3,NULL,NULL,NULL,3,1,3,b1,BlockList4,59,NULL,NULL,NULL,20,2,59,NULL,NULL,NULL,NULL,NULL,NULL,w,w,TrialProc,CM1Trails,red,red,w,w,1,w,448,1,w,549
DualSimon(I),1002,1,"<?xml version=""1.0""?>\n<Clock xmlns:dt=""urn:schemas-microsoft-com:datatypes""><Description dt:dt=""string"">E-Prime Primary Realtime Clock</Description><StartTime><Timestamp dt:dt=""int"">0</Timestamp><DateUtc dt:dt=""string"">2017-10-09T11:59:05Z</DateUtc></StartTime><FrequencyChanges><FrequencyChange><Frequency dt:dt=""r8"">2923154</Frequency><Timestamp dt:dt=""r8"">12634954953</Timestamp><Current dt:dt=""r8"">0</Current><DateUtc dt:dt=""string"">2017-10-09T11:59:05Z</DateUtc></FrequencyChange></FrequencyChanges></Clock>\n",DualSimon(I)-001002-1,59.955,59.955,1.0.0.518,1,-249379018,Professional,2.0.10.353,2.0.10.353,10/09/2017,09/10/2017 11:59,12:59:05,2.0.10.248,1,1,1,1,CM1,List1,3,NULL,NULL,NULL,3,1,3,b1,BlockList4,60,NULL,NULL,NULL,31,2,60,NULL,NULL,NULL,NULL,NULL,NULL,e,w,TrialProc,CM1Trails,blue,red,e,w,1,e,338,1,w,396
DualSimon(I),1002,1,"<?xml version=""1.0""?>\n<Clock xmlns:dt=""urn:schemas-microsoft-com:datatypes""><Description dt:dt=""string"">E-Prime Primary Realtime Clock</Description><StartTime><Timestamp dt:dt=""int"">0</Timestamp><DateUtc dt:dt=""string"">2017-10-09T11:59:05Z</DateUtc></StartTime><FrequencyChanges><FrequencyChange><Frequency dt:dt=""r8"">2923154</Frequency><Timestamp dt:dt=""r8"">12634954953</Timestamp><Current dt:dt=""r8"">0</Current><DateUtc dt:dt=""string"">2017-10-09T11:59:05Z</DateUtc></FrequencyChange></FrequencyChanges></Clock>\n",DualSimon(I)-001002-1,59.955,59.955,1.0.0.518,1,-249379018,Professional,2.0.10.353,2.0.10.353,10/09/2017,09/10/2017 11:59,12:59:05,2.0.10.248,1,1,1,1,CM1,List1,3,NULL,NULL,NULL,3,1,3,b1,BlockList4,61,NULL,NULL,NULL,11,2,61,NULL,NULL,NULL,NULL,NULL,NULL,e,e,TrialProc,CM1Trails,blue,blue,e,e,1,e,369,1,e,368
DualSimon(I),1002,1,"<?xml version=""1.0""?>\n<Clock xmlns:dt=""urn:schemas-microsoft-com:datatypes""><Description dt:dt=""string"">E-Prime Primary Realtime Clock</Description><StartTime><Timestamp dt:dt=""int"">0</Timestamp><DateUtc dt:dt=""string"">2017-10-09T11:59:05Z</DateUtc></StartTime><FrequencyChanges><FrequencyChange><Frequency dt:dt=""r8"">2923154</Frequency><Timestamp dt:dt=""r8"">12634954953</Timestamp><Current dt:dt=""r8"">0</Current><DateUtc dt:dt=""string"">2017-10-09T11:59:05Z</DateUtc></FrequencyChange></FrequencyChanges></Clock>\n",DualSimon(I)-001002-1,59.955,59.955,1.0.0.518,1,-249379018,Professional,2.0.10.353,2.0.10.353,10/09/2017,09/10/2017 11:59,12:59:05,2.0.10.248,1,1,1,1,CM1,List1,3,NULL,NULL,NULL,3,1,3,b1,BlockList4,62,NULL,NULL,NULL,7,2,62,NULL,NULL,NULL,NULL,NULL,NULL,e,w,TrialProc,CM1Trails,blue,red,w,e,1,e,436,1,w,478
DualSimon(I),1002,1,"<?xml version=""1.0""?>\n<Clock xmlns:dt=""urn:schemas-microsoft-com:datatypes""><Description dt:dt=""string"">E-Prime Primary Realtime Clock</Description><StartTime><Timestamp dt:dt=""int"">0</Timestamp><DateUtc dt:dt=""string"">2017-10-09T11:59:05Z</DateUtc></StartTime><FrequencyChanges><FrequencyChange><Frequency dt:dt=""r8"">2923154</Frequency><Timestamp dt:dt=""r8"">12634954953</Timestamp><Current dt:dt=""r8"">0</Current><DateUtc dt:dt=""string"">2017-10-09T11:59:05Z</DateUtc></FrequencyChange></FrequencyChanges></Clock>\n",DualSimon(I)-001002-1,59.955,59.955,1.0.0.518,1,-249379018,Professional,2.0.10.353,2.0.10.353,10/09/2017,09/10/2017 11:59,12:59:05,2.0.10.248,1,1,1,1,CM1,List1,3,NULL,NULL,NULL,3,1,3,b1,BlockList4,63,NULL,NULL,NULL,43,2,63,NULL,NULL,NULL,NULL,NULL,NULL,w,e,TrialProc,CM1Trails,red,blue,w,e,1,w,351,1,e,525
DualSimon(I),1002,1,"<?xml version=""1.0""?>\n<Clock xmlns:dt=""urn:schemas-microsoft-com:datatypes""><Description dt:dt=""string"">E-Prime Primary Realtime Clock</Description><StartTime><Timestamp dt:dt=""int"">0</Timestamp><DateUtc dt:dt=""string"">2017-10-09T11:59:05Z</DateUtc></StartTime><FrequencyChanges><FrequencyChange><Frequency dt:dt=""r8"">2923154</Frequency><Timestamp dt:dt=""r8"">12634954953</Timestamp><Current dt:dt=""r8"">0</Current><DateUtc dt:dt=""string"">2017-10-09T11:59:05Z</DateUtc></FrequencyChange></FrequencyChanges></Clock>\n",DualSimon(I)-001002-1,59.955,59.955,1.0.0.518,1,-249379018,Professional,2.0.10.353,2.0.10.353,10/09/2017,09/10/2017 11:59,12:59:05,2.0.10.248,1,1,1,1,CM1,List1,3,NULL,NULL,NULL,3,1,3,b1,BlockList4,64,NULL,NULL,NULL,86,2,64,NULL,NULL,NULL,NULL,NULL,NULL,w,e,TrialProc,CM1Trails,red,blue,e,w,1,w,316,1,e,414
DualSimon(I),1002,1,"<?xml version=""1.0""?>\n<Clock xmlns:dt=""urn:schemas-microsoft-com:datatypes""><Description dt:dt=""string"">E-Prime Primary Realtime Clock</Description><StartTime><Timestamp dt:dt=""int"">0</Timestamp><DateUtc dt:dt=""string"">2017-10-09T11:59:05Z</DateUtc></StartTime><FrequencyChanges><FrequencyChange><Frequency dt:dt=""r8"">2923154</Frequency><Timestamp dt:dt=""r8"">12634954953</Timestamp><Current dt:dt=""r8"">0</Current><DateUtc dt:dt=""string"">2017-10-09T11:59:05Z</DateUtc></FrequencyChange></FrequencyChanges></Clock>\n",DualSimon(I)-001002-1,59.955,59.955,1.0.0.518,1,-249379018,Professional,2.0.10.353,2.0.10.353,10/09/2017,09/10/2017 11:59,12:59:05,2.0.10.248,1,1,1,1,CM1,List1,3,NULL,NULL,NULL,3,1,3,b1,BlockList4,65,NULL,NULL,NULL,15,2,65,NULL,NULL,NULL,NULL,NULL,NULL,e,e,TrialProc,CM1Trails,blue,blue,e,e,1,e,281,1,e,428
DualSimon(I),1002,1,"<?xml version=""1.0""?>\n<Clock xmlns:dt=""urn:schemas-microsoft-com:datatypes""><Description dt:dt=""string"">E-Prime Primary Realtime Clock</Description><StartTime><Timestamp dt:dt=""int"">0</Timestamp><DateUtc dt:dt=""string"">2017-10-09T11:59:05Z</DateUtc></StartTime><FrequencyChanges><FrequencyChange><Frequency dt:dt=""r8"">2923154</Frequency><Timestamp dt:dt=""r8"">12634954953</Timestamp><Current dt:dt=""r8"">0</Current><DateUtc dt:dt=""string"">2017-10-09T11:59:05Z</DateUtc></FrequencyChange></FrequencyChanges></Clock>\n",DualSimon(I)-001002-1,59.955,59.955,1.0.0.518,1,-249379018,Professional,2.0.10.353,2.0.10.353,10/09/2017,09/10/2017 11:59,12:59:05,2.0.10.248,1,1,1,1,CM1,List1,3,NULL,NULL,NULL,3,1,3,b1,BlockList4,66,NULL,NULL,NULL,89,2,66,NULL,NULL,NULL,NULL,NULL,NULL,w,e,TrialProc,CM1Trails,red,blue,e,w,1,w,402,1,e,423
DualSimon(I),1002,1,"<?xml version=""1.0""?>\n<Clock xmlns:dt=""urn:schemas-microsoft-com:datatypes""><Description dt:dt=""string"">E-Prime Primary Realtime Clock</Description><StartTime><Timestamp dt:dt=""int"">0</Timestamp><DateUtc dt:dt=""string"">2017-10-09T11:59:05Z</DateUtc></StartTime><FrequencyChanges><FrequencyChange><Frequency dt:dt=""r8"">2923154</Frequency><Timestamp dt:dt=""r8"">12634954953</Timestamp><Current dt:dt=""r8"">0</Current><DateUtc dt:dt=""string"">2017-10-09T11:59:05Z</DateUtc></FrequencyChange></FrequencyChanges></Clock>\n",DualSimon(I)-001002-1,59.955,59.955,1.0.0.518,1,-249379018,Professional,2.0.10.353,2.0.10.353,10/09/2017,09/10/2017 11:59,12:59:05,2.0.10.248,1,1,1,1,CM1,List1,3,NULL,NULL,NULL,3,1,3,b1,BlockList4,67,NULL,NULL,NULL,22,2,67,NULL,NULL,NULL,NULL,NULL,NULL,w,w,TrialProc,CM1Trails,red,red,w,w,1,w,513,1,w,404
DualSimon(I),1002,1,"<?xml version=""1.0""?>\n<Clock xmlns:dt=""urn:schemas-microsoft-com:datatypes""><Description dt:dt=""string"">E-Prime Primary Realtime Clock</Description><StartTime><Timestamp dt:dt=""int"">0</Timestamp><DateUtc dt:dt=""string"">2017-10-09T11:59:05Z</DateUtc></StartTime><FrequencyChanges><FrequencyChange><Frequency dt:dt=""r8"">2923154</Frequency><Timestamp dt:dt=""r8"">12634954953</Timestamp><Current dt:dt=""r8"">0</Current><DateUtc dt:dt=""string"">2017-10-09T11:59:05Z</DateUtc></FrequencyChange></FrequencyChanges></Clock>\n",DualSimon(I)-001002-1,59.955,59.955,1.0.0.518,1,-249379018,Professional,2.0.10.353,2.0.10.353,10/09/2017,09/10/2017 11:59,12:59:05,2.0.10.248,1,1,1,1,CM1,List1,3,NULL,NULL,NULL,3,1,3,b1,BlockList4,68,NULL,NULL,NULL,92,2,68,NULL,NULL,NULL,NULL,NULL,NULL,w,e,TrialProc,CM1Trails,red,blue,e,w,1,w,505,1,e,533
DualSimon(I),1002,1,"<?xml version=""1.0""?>\n<Clock xmlns:dt=""urn:schemas-microsoft-com:datatypes""><Description dt:dt=""string"">E-Prime Primary Realtime Clock</Description><StartTime><Timestamp dt:dt=""int"">0</Timestamp><DateUtc dt:dt=""string"">2017-10-09T11:59:05Z</DateUtc></StartTime><FrequencyChanges><FrequencyChange><Frequency dt:dt=""r8"">2923154</Frequency><Timestamp dt:dt=""r8"">12634954953</Timestamp><Current dt:dt=""r8"">0</Current><DateUtc dt:dt=""string"">2017-10-09T11:59:05Z</DateUtc></FrequencyChange></FrequencyChanges></Clock>\n",DualSimon(I)-001002-1,59.955,59.955,1.0.0.518,1,-249379018,Professional,2.0.10.353,2.0.10.353,10/09/2017,09/10/2017 11:59,12:59:05,2.0.10.248,1,1,1,1,CM1,List1,3,NULL,NULL,NULL,3,1,3,b1,BlockList4,69,NULL,NULL,NULL,25,2,69,NULL,NULL,NULL,NULL,NULL,NULL,w,w,TrialProc,CM1Trails,red,red,w,w,1,w,400,1,w,398
DualSimon(I),1002,1,"<?xml version=""1.0""?>\n<Clock xmlns:dt=""urn:schemas-microsoft-com:datatypes""><Description dt:dt=""string"">E-Prime Primary Realtime Clock</Description><StartTime><Timestamp dt:dt=""int"">0</Timestamp><DateUtc dt:dt=""string"">2017-10-09T11:59:05Z</DateUtc></StartTime><FrequencyChanges><FrequencyChange><Frequency dt:dt=""r8"">2923154</Frequency><Timestamp dt:dt=""r8"">12634954953</Timestamp><Current dt:dt=""r8"">0</Current><DateUtc dt:dt=""string"">2017-10-09T11:59:05Z</DateUtc></FrequencyChange></FrequencyChanges></Clock>\n",DualSimon(I)-001002-1,59.955,59.955,1.0.0.518,1,-249379018,Professional,2.0.10.353,2.0.10.353,10/09/2017,09/10/2017 11:59,12:59:05,2.0.10.248,1,1,1,1,CM1,List1,3,NULL,NULL,NULL,3,1,3,b1,BlockList4,70,NULL,NULL,NULL,87,2,70,NULL,NULL,NULL,NULL,NULL,NULL,w,e,TrialProc,CM1Trails,red,blue,e,w,1,w,411,1,e,835
DualSimon(I),1002,1,"<?xml version=""1.0""?>\n<Clock xmlns:dt=""urn:schemas-microsoft-com:datatypes""><Description dt:dt=""string"">E-Prime Primary Realtime Clock</Description><StartTime><Timestamp dt:dt=""int"">0</Timestamp><DateUtc dt:dt=""string"">2017-10-09T11:59:05Z</DateUtc></StartTime><FrequencyChanges><FrequencyChange><Frequency dt:dt=""r8"">2923154</Frequency><Timestamp dt:dt=""r8"">12634954953</Timestamp><Current dt:dt=""r8"">0</Current><DateUtc dt:dt=""string"">2017-10-09T11:59:05Z</DateUtc></FrequencyChange></FrequencyChanges></Clock>\n",DualSimon(I)-001002-1,59.955,59.955,1.0.0.518,1,-249379018,Professional,2.0.10.353,2.0.10.353,10/09/2017,09/10/2017 11:59,12:59:05,2.0.10.248,1,1,1,1,CM1,List1,3,NULL,NULL,NULL,3,1,3,b1,BlockList4,71,NULL,NULL,NULL,68,2,71,NULL,NULL,NULL,NULL,NULL,NULL,w,w,TrialProc,CM1Trails,red,red,e,e,1,w,375,1,w,416
DualSimon(I),1002,1,"<?xml version=""1.0""?>\n<Clock xmlns:dt=""urn:schemas-microsoft-com:datatypes""><Description dt:dt=""string"">E-Prime Primary Realtime Clock</Description><StartTime><Timestamp dt:dt=""int"">0</Timestamp><DateUtc dt:dt=""string"">2017-10-09T11:59:05Z</DateUtc></StartTime><FrequencyChanges><FrequencyChange><Frequency dt:dt=""r8"">2923154</Frequency><Timestamp dt:dt=""r8"">12634954953</Timestamp><Current dt:dt=""r8"">0</Current><DateUtc dt:dt=""string"">2017-10-09T11:59:05Z</DateUtc></FrequencyChange></FrequencyChanges></Clock>\n",DualSimon(I)-001002-1,59.955,59.955,1.0.0.518,1,-249379018,Professional,2.0.10.353,2.0.10.353,10/09/2017,09/10/2017 11:59,12:59:05,2.0.10.248,1,1,1,1,CM1,List1,3,NULL,NULL,NULL,3,1,3,b1,BlockList4,72,NULL,NULL,NULL,91,2,72,NULL,NULL,NULL,NULL,NULL,NULL,w,e,TrialProc,CM1Trails,red,blue,e,w,1,w,353,1,e,417
DualSimon(I),1002,1,"<?xml version=""1.0""?>\n<Clock xmlns:dt=""urn:schemas-microsoft-com:datatypes""><Description dt:dt=""string"">E-Prime Primary Realtime Clock</Description><StartTime><Timestamp dt:dt=""int"">0</Timestamp><DateUtc dt:dt=""string"">2017-10-09T11:59:05Z</DateUtc></StartTime><FrequencyChanges><FrequencyChange><Frequency dt:dt=""r8"">2923154</Frequency><Timestamp dt:dt=""r8"">12634954953</Timestamp><Current dt:dt=""r8"">0</Current><DateUtc dt:dt=""string"">2017-10-09T11:59:05Z</DateUtc></FrequencyChange></FrequencyChanges></Clock>\n",DualSimon(I)-001002-1,59.955,59.955,1.0.0.518,1,-249379018,Professional,2.0.10.353,2.0.10.353,10/09/2017,09/10/2017 11:59,12:59:05,2.0.10.248,1,1,1,1,CM1,List1,3,NULL,NULL,NULL,3,1,3,b1,BlockList4,73,NULL,NULL,NULL,78,2,73,NULL,NULL,NULL,NULL,NULL,NULL,e,w,TrialProc,CM1Trails,blue,red,w,e,1,e,424,1,w,400
DualSimon(I),1002,1,"<?xml version=""1.0""?>\n<Clock xmlns:dt=""urn:schemas-microsoft-com:datatypes""><Description dt:dt=""string"">E-Prime Primary Realtime Clock</Description><StartTime><Timestamp dt:dt=""int"">0</Timestamp><DateUtc dt:dt=""string"">2017-10-09T11:59:05Z</DateUtc></StartTime><FrequencyChanges><FrequencyChange><Frequency dt:dt=""r8"">2923154</Frequency><Timestamp dt:dt=""r8"">12634954953</Timestamp><Current dt:dt=""r8"">0</Current><DateUtc dt:dt=""string"">2017-10-09T11:59:05Z</DateUtc></FrequencyChange></FrequencyChanges></Clock>\n",DualSimon(I)-001002-1,59.955,59.955,1.0.0.518,1,-249379018,Professional,2.0.10.353,2.0.10.353,10/09/2017,09/10/2017 11:59,12:59:05,2.0.10.248,1,1,1,1,CM1,List1,3,NULL,NULL,NULL,3,1,3,b1,BlockList4,74,NULL,NULL,NULL,84,2,74,NULL,NULL,NULL,NULL,NULL,NULL,e,w,TrialProc,CM1Trails,blue,red,w,e,1,e,348,1,w,363
DualSimon(I),1002,1,"<?xml version=""1.0""?>\n<Clock xmlns:dt=""urn:schemas-microsoft-com:datatypes""><Description dt:dt=""string"">E-Prime Primary Realtime Clock</Description><StartTime><Timestamp dt:dt=""int"">0</Timestamp><DateUtc dt:dt=""string"">2017-10-09T11:59:05Z</DateUtc></StartTime><FrequencyChanges><FrequencyChange><Frequency dt:dt=""r8"">2923154</Frequency><Timestamp dt:dt=""r8"">12634954953</Timestamp><Current dt:dt=""r8"">0</Current><DateUtc dt:dt=""string"">2017-10-09T11:59:05Z</DateUtc></FrequencyChange></FrequencyChanges></Clock>\n",DualSimon(I)-001002-1,59.955,59.955,1.0.0.518,1,-249379018,Professional,2.0.10.353,2.0.10.353,10/09/2017,09/10/2017 11:59,12:59:05,2.0.10.248,1,1,1,1,CM1,List1,3,NULL,NULL,NULL,3,1,3,b1,BlockList4,75,NULL,NULL,NULL,21,2,75,NULL,NULL,NULL,NULL,NULL,NULL,w,w,TrialProc,CM1Trails,red,red,w,w,1,w,481,1,w,343
DualSimon(I),1002,1,"<?xml version=""1.0""?>\n<Clock xmlns:dt=""urn:schemas-microsoft-com:datatypes""><Description dt:dt=""string"">E-Prime Primary Realtime Clock</Description><StartTime><Timestamp dt:dt=""int"">0</Timestamp><DateUtc dt:dt=""string"">2017-10-09T11:59:05Z</DateUtc></StartTime><FrequencyChanges><FrequencyChange><Frequency dt:dt=""r8"">2923154</Frequency><Timestamp dt:dt=""r8"">12634954953</Timestamp><Current dt:dt=""r8"">0</Current><DateUtc dt:dt=""string"">2017-10-09T11:59:05Z</DateUtc></FrequencyChange></FrequencyChanges></Clock>\n",DualSimon(I)-001002-1,59.955,59.955,1.0.0.518,1,-249379018,Professional,2.0.10.353,2.0.10.353,10/09/2017,09/10/2017 11:59,12:59:05,2.0.10.248,1,1,1,1,CM1,List1,3,NULL,NULL,NULL,3,1,3,b1,BlockList4,76,NULL,NULL,NULL,33,2,76,NULL,NULL,NULL,NULL,NULL,NULL,e,w,TrialProc,CM1Trails,blue,red,e,w,1,e,375,1,w,365
DualSimon(I),1002,1,"<?xml version=""1.0""?>\n<Clock xmlns:dt=""urn:schemas-microsoft-com:datatypes""><Description dt:dt=""string"">E-Prime Primary Realtime Clock</Description><StartTime><Timestamp dt:dt=""int"">0</Timestamp><DateUtc dt:dt=""string"">2017-10-09T11:59:05Z</DateUtc></StartTime><FrequencyChanges><FrequencyChange><Frequency dt:dt=""r8"">2923154</Frequency><Timestamp dt:dt=""r8"">12634954953</Timestamp><Current dt:dt=""r8"">0</Current><DateUtc dt:dt=""string"">2017-10-09T11:59:05Z</DateUtc></FrequencyChange></FrequencyChanges></Clock>\n",DualSimon(I)-001002-1,59.955,59.955,1.0.0.518,1,-249379018,Professional,2.0.10.353,2.0.10.353,10/09/2017,09/10/2017 11:59,12:59:05,2.0.10.248,1,1,1,1,CM1,List1,3,NULL,NULL,NULL,3,1,3,b1,BlockList4,77,NULL,NULL,NULL,46,2,77,NULL,NULL,NULL,NULL,NULL,NULL,w,e,TrialProc,CM1Trails,red,blue,w,e,1,w,477,1,e,427
DualSimon(I),1002,1,"<?xml version=""1.0""?>\n<Clock xmlns:dt=""urn:schemas-microsoft-com:datatypes""><Description dt:dt=""string"">E-Prime Primary Realtime Clock</Description><StartTime><Timestamp dt:dt=""int"">0</Timestamp><DateUtc dt:dt=""string"">2017-10-09T11:59:05Z</DateUtc></StartTime><FrequencyChanges><FrequencyChange><Frequency dt:dt=""r8"">2923154</Frequency><Timestamp dt:dt=""r8"">12634954953</Timestamp><Current dt:dt=""r8"">0</Current><DateUtc dt:dt=""string"">2017-10-09T11:59:05Z</DateUtc></FrequencyChange></FrequencyChanges></Clock>\n",DualSimon(I)-001002-1,59.955,59.955,1.0.0.518,1,-249379018,Professional,2.0.10.353,2.0.10.353,10/09/2017,09/10/2017 11:59,12:59:05,2.0.10.248,1,1,1,1,CM1,List1,3,NULL,NULL,NULL,3,1,3,b1,BlockList4,78,NULL,NULL,NULL,62,2,78,NULL,NULL,NULL,NULL,NULL,NULL,e,e,TrialProc,CM1Trails,blue,blue,w,w,1,e,489,0,w,379
DualSimon(I),1002,1,"<?xml version=""1.0""?>\n<Clock xmlns:dt=""urn:schemas-microsoft-com:datatypes""><Description dt:dt=""string"">E-Prime Primary Realtime Clock</Description><StartTime><Timestamp dt:dt=""int"">0</Timestamp><DateUtc dt:dt=""string"">2017-10-09T11:59:05Z</DateUtc></StartTime><FrequencyChanges><FrequencyChange><Frequency dt:dt=""r8"">2923154</Frequency><Timestamp dt:dt=""r8"">12634954953</Timestamp><Current dt:dt=""r8"">0</Current><DateUtc dt:dt=""string"">2017-10-09T11:59:05Z</DateUtc></FrequencyChange></FrequencyChanges></Clock>\n",DualSimon(I)-001002-1,59.955,59.955,1.0.0.518,1,-249379018,Professional,2.0.10.353,2.0.10.353,10/09/2017,09/10/2017 11:59,12:59:05,2.0.10.248,1,1,1,1,CM1,List1,3,NULL,NULL,NULL,3,1,3,b1,BlockList4,79,NULL,NULL,NULL,63,2,79,NULL,NULL,NULL,NULL,NULL,NULL,e,e,TrialProc,CM1Trails,blue,blue,w,w,1,e,480,1,e,702
DualSimon(I),1002,1,"<?xml version=""1.0""?>\n<Clock xmlns:dt=""urn:schemas-microsoft-com:datatypes""><Description dt:dt=""string"">E-Prime Primary Realtime Clock</Description><StartTime><Timestamp dt:dt=""int"">0</Timestamp><DateUtc dt:dt=""string"">2017-10-09T11:59:05Z</DateUtc></StartTime><FrequencyChanges><FrequencyChange><Frequency dt:dt=""r8"">2923154</Frequency><Timestamp dt:dt=""r8"">12634954953</Timestamp><Current dt:dt=""r8"">0</Current><DateUtc dt:dt=""string"">2017-10-09T11:59:05Z</DateUtc></FrequencyChange></FrequencyChanges></Clock>\n",DualSimon(I)-001002-1,59.955,59.955,1.0.0.518,1,-249379018,Professional,2.0.10.353,2.0.10.353,10/09/2017,09/10/2017 11:59,12:59:05,2.0.10.248,1,1,1,1,CM1,List1,3,NULL,NULL,NULL,3,1,3,b1,BlockList4,80,NULL,NULL,NULL,53,2,80,NULL,NULL,NULL,NULL,NULL,NULL,e,e,TrialProc,CM1Trails,blue,blue,w,w,1,e,327,1,e,526
DualSimon(I),1002,1,"<?xml version=""1.0""?>\n<Clock xmlns:dt=""urn:schemas-microsoft-com:datatypes""><Description dt:dt=""string"">E-Prime Primary Realtime Clock</Description><StartTime><Timestamp dt:dt=""int"">0</Timestamp><DateUtc dt:dt=""string"">2017-10-09T11:59:05Z</DateUtc></StartTime><FrequencyChanges><FrequencyChange><Frequency dt:dt=""r8"">2923154</Frequency><Timestamp dt:dt=""r8"">12634954953</Timestamp><Current dt:dt=""r8"">0</Current><DateUtc dt:dt=""string"">2017-10-09T11:59:05Z</DateUtc></FrequencyChange></FrequencyChanges></Clock>\n",DualSimon(I)-001002-1,59.955,59.955,1.0.0.518,1,-249379018,Professional,2.0.10.353,2.0.10.353,10/09/2017,09/10/2017 11:59,12:59:05,2.0.10.248,1,1,1,1,CM1,List1,3,NULL,NULL,NULL,3,1,3,b1,BlockList4,81,NULL,NULL,NULL,93,2,81,NULL,NULL,NULL,NULL,NULL,NULL,w,e,TrialProc,CM1Trails,red,blue,e,w,1,w,442,1,e,384
DualSimon(I),1002,1,"<?xml version=""1.0""?>\n<Clock xmlns:dt=""urn:schemas-microsoft-com:datatypes""><Description dt:dt=""string"">E-Prime Primary Realtime Clock</Description><StartTime><Timestamp dt:dt=""int"">0</Timestamp><DateUtc dt:dt=""string"">2017-10-09T11:59:05Z</DateUtc></StartTime><FrequencyChanges><FrequencyChange><Frequency dt:dt=""r8"">2923154</Frequency><Timestamp dt:dt=""r8"">12634954953</Timestamp><Current dt:dt=""r8"">0</Current><DateUtc dt:dt=""string"">2017-10-09T11:59:05Z</DateUtc></FrequencyChange></FrequencyChanges></Clock>\n",DualSimon(I)-001002-1,59.955,59.955,1.0.0.518,1,-249379018,Professional,2.0.10.353,2.0.10.353,10/09/2017,09/10/2017 11:59,12:59:05,2.0.10.248,1,1,1,1,CM1,List1,3,NULL,NULL,NULL,3,1,3,b1,BlockList4,82,NULL,NULL,NULL,95,2,82,NULL,NULL,NULL,NULL,NULL,NULL,w,e,TrialProc,CM1Trails,red,blue,e,w,1,w,343,1,e,443
DualSimon(I),1002,1,"<?xml version=""1.0""?>\n<Clock xmlns:dt=""urn:schemas-microsoft-com:datatypes""><Description dt:dt=""string"">E-Prime Primary Realtime Clock</Description><StartTime><Timestamp dt:dt=""int"">0</Timestamp><DateUtc dt:dt=""string"">2017-10-09T11:59:05Z</DateUtc></StartTime><FrequencyChanges><FrequencyChange><Frequency dt:dt=""r8"">2923154</Frequency><Timestamp dt:dt=""r8"">12634954953</Timestamp><Current dt:dt=""r8"">0</Current><DateUtc dt:dt=""string"">2017-10-09T11:59:05Z</DateUtc></FrequencyChange></FrequencyChanges></Clock>\n",DualSimon(I)-001002-1,59.955,59.955,1.0.0.518,1,-249379018,Professional,2.0.10.353,2.0.10.353,10/09/2017,09/10/2017 11:59,12:59:05,2.0.10.248,1,1,1,1,CM1,List1,3,NULL,NULL,NULL,3,1,3,b1,BlockList4,83,NULL,NULL,NULL,61,2,83,NULL,NULL,NULL,NULL,NULL,NULL,e,e,TrialProc,CM1Trails,blue,blue,w,w,1,e,447,0,w,380
DualSimon(I),1002,1,"<?xml version=""1.0""?>\n<Clock xmlns:dt=""urn:schemas-microsoft-com:datatypes""><Description dt:dt=""string"">E-Prime Primary Realtime Clock</Description><StartTime><Timestamp dt:dt=""int"">0</Timestamp><DateUtc dt:dt=""string"">2017-10-09T11:59:05Z</DateUtc></StartTime><FrequencyChanges><FrequencyChange><Frequency dt:dt=""r8"">2923154</Frequency><Timestamp dt:dt=""r8"">12634954953</Timestamp><Current dt:dt=""r8"">0</Current><DateUtc dt:dt=""string"">2017-10-09T11:59:05Z</DateUtc></FrequencyChange></FrequencyChanges></Clock>\n",DualSimon(I)-001002-1,59.955,59.955,1.0.0.518,1,-249379018,Professional,2.0.10.353,2.0.10.353,10/09/2017,09/10/2017 11:59,12:59:05,2.0.10.248,1,1,1,1,CM1,List1,3,NULL,NULL,NULL,3,1,3,b1,BlockList4,84,NULL,NULL,NULL,12,2,84,NULL,NULL,NULL,NULL,NULL,NULL,e,e,TrialProc,CM1Trails,blue,blue,e,e,1,e,327,1,e,569
DualSimon(I),1002,1,"<?xml version=""1.0""?>\n<Clock xmlns:dt=""urn:schemas-microsoft-com:datatypes""><Description dt:dt=""string"">E-Prime Primary Realtime Clock</Description><StartTime><Timestamp dt:dt=""int"">0</Timestamp><DateUtc dt:dt=""string"">2017-10-09T11:59:05Z</DateUtc></StartTime><FrequencyChanges><FrequencyChange><Frequency dt:dt=""r8"">2923154</Frequency><Timestamp dt:dt=""r8"">12634954953</Timestamp><Current dt:dt=""r8"">0</Current><DateUtc dt:dt=""string"">2017-10-09T11:59:05Z</DateUtc></FrequencyChange></FrequencyChanges></Clock>\n",DualSimon(I)-001002-1,59.955,59.955,1.0.0.518,1,-249379018,Professional,2.0.10.353,2.0.10.353,10/09/2017,09/10/2017 11:59,12:59:05,2.0.10.248,1,1,1,1,CM1,List1,3,NULL,NULL,NULL,3,1,3,b1,BlockList4,85,NULL,NULL,NULL,75,2,85,NULL,NULL,NULL,NULL,NULL,NULL,e,w,TrialProc,CM1Trails,blue,red,w,e,1,e,489,1,w,485
DualSimon(I),1002,1,"<?xml version=""1.0""?>\n<Clock xmlns:dt=""urn:schemas-microsoft-com:datatypes""><Description dt:dt=""string"">E-Prime Primary Realtime Clock</Description><StartTime><Timestamp dt:dt=""int"">0</Timestamp><DateUtc dt:dt=""string"">2017-10-09T11:59:05Z</DateUtc></StartTime><FrequencyChanges><FrequencyChange><Frequency dt:dt=""r8"">2923154</Frequency><Timestamp dt:dt=""r8"">12634954953</Timestamp><Current dt:dt=""r8"">0</Current><DateUtc dt:dt=""string"">2017-10-09T11:59:05Z</DateUtc></FrequencyChange></FrequencyChanges></Clock>\n",DualSimon(I)-001002-1,59.955,59.955,1.0.0.518,1,-249379018,Professional,2.0.10.353,2.0.10.353,10/09/2017,09/10/2017 11:59,12:59:05,2.0.10.248,1,1,1,1,CM1,List1,3,NULL,NULL,NULL,3,1,3,b1,BlockList4,86,NULL,NULL,NULL,1,2,86,NULL,NULL,NULL,NULL,NULL,NULL,e,e,TrialProc,CM1Trails,blue,blue,e,e,1,e,304,1,e,727
DualSimon(I),1002,1,"<?xml version=""1.0""?>\n<Clock xmlns:dt=""urn:schemas-microsoft-com:datatypes""><Description dt:dt=""string"">E-Prime Primary Realtime Clock</Description><StartTime><Timestamp dt:dt=""int"">0</Timestamp><DateUtc dt:dt=""string"">2017-10-09T11:59:05Z</DateUtc></StartTime><FrequencyChanges><FrequencyChange><Frequency dt:dt=""r8"">2923154</Frequency><Timestamp dt:dt=""r8"">12634954953</Timestamp><Current dt:dt=""r8"">0</Current><DateUtc dt:dt=""string"">2017-10-09T11:59:05Z</DateUtc></FrequencyChange></FrequencyChanges></Clock>\n",DualSimon(I)-001002-1,59.955,59.955,1.0.0.518,1,-249379018,Professional,2.0.10.353,2.0.10.353,10/09/2017,09/10/2017 11:59,12:59:05,2.0.10.248,1,1,1,1,CM1,List1,3,NULL,NULL,NULL,3,1,3,b1,BlockList4,87,NULL,NULL,NULL,40,2,87,NULL,NULL,NULL,NULL,NULL,NULL,e,w,TrialProc,CM1Trails,blue,red,e,w,1,e,4059,1,w,392
DualSimon(I),1002,1,"<?xml version=""1.0""?>\n<Clock xmlns:dt=""urn:schemas-microsoft-com:datatypes""><Description dt:dt=""string"">E-Prime Primary Realtime Clock</Description><StartTime><Timestamp dt:dt=""int"">0</Timestamp><DateUtc dt:dt=""string"">2017-10-09T11:59:05Z</DateUtc></StartTime><FrequencyChanges><FrequencyChange><Frequency dt:dt=""r8"">2923154</Frequency><Timestamp dt:dt=""r8"">12634954953</Timestamp><Current dt:dt=""r8"">0</Current><DateUtc dt:dt=""string"">2017-10-09T11:59:05Z</DateUtc></FrequencyChange></FrequencyChanges></Clock>\n",DualSimon(I)-001002-1,59.955,59.955,1.0.0.518,1,-249379018,Professional,2.0.10.353,2.0.10.353,10/09/2017,09/10/2017 11:59,12:59:05,2.0.10.248,1,1,1,1,CM1,List1,3,NULL,NULL,NULL,3,1,3,b1,BlockList4,88,NULL,NULL,NULL,10,2,88,NULL,NULL,NULL,NULL,NULL,NULL,e,e,TrialProc,CM1Trails,blue,blue,e,e,1,e,418,1,e,424
DualSimon(I),1002,1,"<?xml version=""1.0""?>\n<Clock xmlns:dt=""urn:schemas-microsoft-com:datatypes""><Description dt:dt=""string"">E-Prime Primary Realtime Clock</Description><StartTime><Timestamp dt:dt=""int"">0</Timestamp><DateUtc dt:dt=""string"">2017-10-09T11:59:05Z</DateUtc></StartTime><FrequencyChanges><FrequencyChange><Frequency dt:dt=""r8"">2923154</Frequency><Timestamp dt:dt=""r8"">12634954953</Timestamp><Current dt:dt=""r8"">0</Current><DateUtc dt:dt=""string"">2017-10-09T11:59:05Z</DateUtc></FrequencyChange></FrequencyChanges></Clock>\n",DualSimon(I)-001002-1,59.955,59.955,1.0.0.518,1,-249379018,Professional,2.0.10.353,2.0.10.353,10/09/2017,09/10/2017 11:59,12:59:05,2.0.10.248,1,1,1,1,CM1,List1,3,NULL,NULL,NULL,3,1,3,b1,BlockList4,89,NULL,NULL,NULL,39,2,89,NULL,NULL,NULL,NULL,NULL,NULL,e,w,TrialProc,CM1Trails,blue,red,e,w,1,e,360,1,w,602
DualSimon(I),1002,1,"<?xml version=""1.0""?>\n<Clock xmlns:dt=""urn:schemas-microsoft-com:datatypes""><Description dt:dt=""string"">E-Prime Primary Realtime Clock</Description><StartTime><Timestamp dt:dt=""int"">0</Timestamp><DateUtc dt:dt=""string"">2017-10-09T11:59:05Z</DateUtc></StartTime><FrequencyChanges><FrequencyChange><Frequency dt:dt=""r8"">2923154</Frequency><Timestamp dt:dt=""r8"">12634954953</Timestamp><Current dt:dt=""r8"">0</Current><DateUtc dt:dt=""string"">2017-10-09T11:59:05Z</DateUtc></FrequencyChange></FrequencyChanges></Clock>\n",DualSimon(I)-001002-1,59.955,59.955,1.0.0.518,1,-249379018,Professional,2.0.10.353,2.0.10.353,10/09/2017,09/10/2017 11:59,12:59:05,2.0.10.248,1,1,1,1,CM1,List1,3,NULL,NULL,NULL,3,1,3,b1,BlockList4,90,NULL,NULL,NULL,26,2,90,NULL,NULL,NULL,NULL,NULL,NULL,w,w,TrialProc,CM1Trails,red,red,w,w,1,w,455,1,w,452
DualSimon(I),1002,1,"<?xml version=""1.0""?>\n<Clock xmlns:dt=""urn:schemas-microsoft-com:datatypes""><Description dt:dt=""string"">E-Prime Primary Realtime Clock</Description><StartTime><Timestamp dt:dt=""int"">0</Timestamp><DateUtc dt:dt=""string"">2017-10-09T11:59:05Z</DateUtc></StartTime><FrequencyChanges><FrequencyChange><Frequency dt:dt=""r8"">2923154</Frequency><Timestamp dt:dt=""r8"">12634954953</Timestamp><Current dt:dt=""r8"">0</Current><DateUtc dt:dt=""string"">2017-10-09T11:59:05Z</DateUtc></FrequencyChange></FrequencyChanges></Clock>\n",DualSimon(I)-001002-1,59.955,59.955,1.0.0.518,1,-249379018,Professional,2.0.10.353,2.0.10.353,10/09/2017,09/10/2017 11:59,12:59:05,2.0.10.248,1,1,1,1,CM1,List1,3,NULL,NULL,NULL,3,1,3,b1,BlockList4,91,NULL,NULL,NULL,14,2,91,NULL,NULL,NULL,NULL,NULL,NULL,e,e,TrialProc,CM1Trails,blue,blue,e,e,1,e,430,1,e,343
DualSimon(I),1002,1,"<?xml version=""1.0""?>\n<Clock xmlns:dt=""urn:schemas-microsoft-com:datatypes""><Description dt:dt=""string"">E-Prime Primary Realtime Clock</Description><StartTime><Timestamp dt:dt=""int"">0</Timestamp><DateUtc dt:dt=""string"">2017-10-09T11:59:05Z</DateUtc></StartTime><FrequencyChanges><FrequencyChange><Frequency dt:dt=""r8"">2923154</Frequency><Timestamp dt:dt=""r8"">12634954953</Timestamp><Current dt:dt=""r8"">0</Current><DateUtc dt:dt=""string"">2017-10-09T11:59:05Z</DateUtc></FrequencyChange></FrequencyChanges></Clock>\n",DualSimon(I)-001002-1,59.955,59.955,1.0.0.518,1,-249379018,Professional,2.0.10.353,2.0.10.353,10/09/2017,09/10/2017 11:59,12:59:05,2.0.10.248,1,1,1,1,CM1,List1,3,NULL,NULL,NULL,3,1,3,b1,BlockList4,92,NULL,NULL,NULL,58,2,92,NULL,NULL,NULL,NULL,NULL,NULL,e,e,TrialProc,CM1Trails,blue,blue,w,w,1,e,445,1,e,629
DualSimon(I),1002,1,"<?xml version=""1.0""?>\n<Clock xmlns:dt=""urn:schemas-microsoft-com:datatypes""><Description dt:dt=""string"">E-Prime Primary Realtime Clock</Description><StartTime><Timestamp dt:dt=""int"">0</Timestamp><DateUtc dt:dt=""string"">2017-10-09T11:59:05Z</DateUtc></StartTime><FrequencyChanges><FrequencyChange><Frequency dt:dt=""r8"">2923154</Frequency><Timestamp dt:dt=""r8"">12634954953</Timestamp><Current dt:dt=""r8"">0</Current><DateUtc dt:dt=""string"">2017-10-09T11:59:05Z</DateUtc></FrequencyChange></FrequencyChanges></Clock>\n",DualSimon(I)-001002-1,59.955,59.955,1.0.0.518,1,-249379018,Professional,2.0.10.353,2.0.10.353,10/09/2017,09/10/2017 11:59,12:59:05,2.0.10.248,1,1,1,1,CM1,List1,3,NULL,NULL,NULL,3,1,3,b1,BlockList4,93,NULL,NULL,NULL,44,2,93,NULL,NULL,NULL,NULL,NULL,NULL,w,e,TrialProc,CM1Trails,red,blue,w,e,1,w,538,1,e,403
DualSimon(I),1002,1,"<?xml version=""1.0""?>\n<Clock xmlns:dt=""urn:schemas-microsoft-com:datatypes""><Description dt:dt=""string"">E-Prime Primary Realtime Clock</Description><StartTime><Timestamp dt:dt=""int"">0</Timestamp><DateUtc dt:dt=""string"">2017-10-09T11:59:05Z</DateUtc></StartTime><FrequencyChanges><FrequencyChange><Frequency dt:dt=""r8"">2923154</Frequency><Timestamp dt:dt=""r8"">12634954953</Timestamp><Current dt:dt=""r8"">0</Current><DateUtc dt:dt=""string"">2017-10-09T11:59:05Z</DateUtc></FrequencyChange></FrequencyChanges></Clock>\n",DualSimon(I)-001002-1,59.955,59.955,1.0.0.518,1,-249379018,Professional,2.0.10.353,2.0.10.353,10/09/2017,09/10/2017 11:59,12:59:05,2.0.10.248,1,1,1,1,CM1,List1,3,NULL,NULL,NULL,3,1,3,b1,BlockList4,94,NULL,NULL,NULL,79,2,94,NULL,NULL,NULL,NULL,NULL,NULL,e,w,TrialProc,CM1Trails,blue,red,w,e,1,e,377,1,w,417
DualSimon(I),1002,1,"<?xml version=""1.0""?>\n<Clock xmlns:dt=""urn:schemas-microsoft-com:datatypes""><Description dt:dt=""string"">E-Prime Primary Realtime Clock</Description><StartTime><Timestamp dt:dt=""int"">0</Timestamp><DateUtc dt:dt=""string"">2017-10-09T11:59:05Z</DateUtc></StartTime><FrequencyChanges><FrequencyChange><Frequency dt:dt=""r8"">2923154</Frequency><Timestamp dt:dt=""r8"">12634954953</Timestamp><Current dt:dt=""r8"">0</Current><DateUtc dt:dt=""string"">2017-10-09T11:59:05Z</DateUtc></FrequencyChange></FrequencyChanges></Clock>\n",DualSimon(I)-001002-1,59.955,59.955,1.0.0.518,1,-249379018,Professional,2.0.10.353,2.0.10.353,10/09/2017,09/10/2017 11:59,12:59:05,2.0.10.248,1,1,1,1,CM1,List1,3,NULL,NULL,NULL,3,1,3,b1,BlockList4,95,NULL,NULL,NULL,47,2,95,NULL,NULL,NULL,NULL,NULL,NULL,w,e,TrialProc,CM1Trails,red,blue,w,e,1,w,297,1,e,655
DualSimon(I),1002,1,"<?xml version=""1.0""?>\n<Clock xmlns:dt=""urn:schemas-microsoft-com:datatypes""><Description dt:dt=""string"">E-Prime Primary Realtime Clock</Description><StartTime><Timestamp dt:dt=""int"">0</Timestamp><DateUtc dt:dt=""string"">2017-10-09T11:59:05Z</DateUtc></StartTime><FrequencyChanges><FrequencyChange><Frequency dt:dt=""r8"">2923154</Frequency><Timestamp dt:dt=""r8"">12634954953</Timestamp><Current dt:dt=""r8"">0</Current><DateUtc dt:dt=""string"">2017-10-09T11:59:05Z</DateUtc></FrequencyChange></FrequencyChanges></Clock>\n",DualSimon(I)-001002-1,59.955,59.955,1.0.0.518,1,-249379018,Professional,2.0.10.353,2.0.10.353,10/09/2017,09/10/2017 11:59,12:59:05,2.0.10.248,1,1,1,1,CM1,List1,3,NULL,NULL,NULL,3,1,3,b1,BlockList4,96,NULL,NULL,NULL,73,2,96,NULL,NULL,NULL,NULL,NULL,NULL,w,w,TrialProc,CM1Trails,red,red,e,e,1,w,471,1,w,854
DualSimon(I),1002,1,"<?xml version=""1.0""?>\n<Clock xmlns:dt=""urn:schemas-microsoft-com:datatypes""><Description dt:dt=""string"">E-Prime Primary Realtime Clock</Description><StartTime><Timestamp dt:dt=""int"">0</Timestamp><DateUtc dt:dt=""string"">2017-10-09T11:59:05Z</DateUtc></StartTime><FrequencyChanges><FrequencyChange><Frequency dt:dt=""r8"">2923154</Frequency><Timestamp dt:dt=""r8"">12634954953</Timestamp><Current dt:dt=""r8"">0</Current><DateUtc dt:dt=""string"">2017-10-09T11:59:05Z</DateUtc></FrequencyChange></FrequencyChanges></Clock>\n",DualSimon(I)-001002-1,59.955,59.955,1.0.0.518,1,-249379018,Professional,2.0.10.353,2.0.10.353,10/09/2017,09/10/2017 11:59,12:59:05,2.0.10.248,2,2,1,2,CM2,List1,1,1,1,1,NULL,NULL,NULL,CM2PracTrial,BlockList2,1,NULL,NULL,NULL,NULL,NULL,NULL,9,2,1,NULL,NULL,NULL,w,e,TrialProc7,CM2PracTrials,blue,red,e,w,1,w,455,1,e,973
