ExperimentName,Subject,Session,Clock.Information,DataFile.Basename,Display1.RefreshRate,Display2.RefreshRate,ExperimentVersion,Group,RandomSeed,RuntimeCapabilities,RuntimeVersion,RuntimeVersionExpected,SessionDate,SessionStartDateTimeUtc,SessionTime,StudioVersion,Block,List1,List1.Cycle,List1.Sample,Procedure[Block],Running[Block],Trial,BlockList2,BlockList2.Cycle,BlockList2.Sample,BlockList4,BlockList4.Cycle,BlockList4.Sample,Procedure[Trial],Running[Trial],SubTrial,CM1PracTrails1,CM1PracTrails1.Cycle,CM1PracTrails1.Sample,CM1Trails,CM1Trails.Cycle,CM1Trails.Sample,CM2PracTrials,CM2PracTrials.Cycle,CM2PracTrials.Sample,CM2Trials,CM2Trials.Cycle,CM2Trials.Sample,CorrectSubj1,CorrectSubj2,Procedure[SubTrial],Running[SubTrial],Screen1_Obj_Colour,Screen2_Obj_Colour,Screen_1_Obj_Pos,Screen_2_Obj_Pos,Subject1ACC,Subject1RESP,Subject1RT,Subject2ACC,Subject2RESP,Subject2RT
DualSimon(I),3004,1,"<?xml version=""1.0""?>\n<Clock xmlns:dt=""urn:schemas-microsoft-com:datatypes""><Description dt:dt=""string"">E-Prime Primary Realtime Clock</Description><StartTime><Timestamp dt:dt=""int"">0</Timestamp><DateUtc dt:dt=""string"">2017-10-10T17:41:49Z</DateUtc></StartTime><FrequencyChanges><FrequencyChange><Frequency dt:dt=""r8"">2923154</Frequency><Timestamp dt:dt=""r8"">325279697359</Timestamp><Current dt:dt=""r8"">0</Current><DateUtc dt:dt=""string"">2017-10-10T17:41:49Z</DateUtc></FrequencyChange></FrequencyChanges></Clock>\n",DualSimon(I)-003004-1,59.955,59.955,1.0.0.520,1,-1137263389,Professional,2.0.10.353,2.0.10.353,10/10/2017,10/10/2017 17:41,18:41:49,2.0.10.248,1,1,1,1,CM1,List1,1,NULL,NULL,NULL,1,1,1,CM1Prac,BlockList4,1,4,2,1,NULL,NULL,NULL,NULL,NULL,NULL,NULL,NULL,NULL,w,e,TrialProc2,CM1PracTrails1,red,blue,w,e,1,w,597,1,e,758
DualSimon(I),3004,1,"<?xml version=""1.0""?>\n<Clock xmlns:dt=""urn:schemas-microsoft-com:datatypes""><Description dt:dt=""string"">E-Prime Primary Realtime Clock</Description><StartTime><Timestamp dt:dt=""int"">0</Timestamp><DateUtc dt:dt=""string"">2017-10-10T17:41:49Z</DateUtc></StartTime><FrequencyChanges><FrequencyChange><Frequency dt:dt=""r8"">2923154</Frequency><Timestamp dt:dt=""r8"">325279697359</Timestamp><Current dt:dt=""r8"">0</Current><DateUtc dt:dt=""string"">2017-10-10T17:41:49Z</DateUtc></FrequencyChange></FrequencyChanges></Clock>\n",DualSimon(I)-003004-1,59.955,59.955,1.0.0.520,1,-1137263389,Professional,2.0.10.353,2.0.10.353,10/10/2017,10/10/2017 17:41,18:41:49,2.0.10.248,1,1,1,1,CM1,List1,1,NULL,NULL,NULL,1,1,1,CM1Prac,BlockList4,2,3,2,2,NULL,NULL,NULL,NULL,NULL,NULL,NULL,NULL,NULL,e,w,TrialProc2,CM1PracTrails1,blue,red,e,w,1,e,655,1,w,269
DualSimon(I),3004,1,"<?xml version=""1.0""?>\n<Clock xmlns:dt=""urn:schemas-microsoft-com:datatypes""><Description dt:dt=""string"">E-Prime Primary Realtime Clock</Description><StartTime><Timestamp dt:dt=""int"">0</Timestamp><DateUtc dt:dt=""string"">2017-10-10T17:41:49Z</DateUtc></StartTime><FrequencyChanges><FrequencyChange><Frequency dt:dt=""r8"">2923154</Frequency><Timestamp dt:dt=""r8"">325279697359</Timestamp><Current dt:dt=""r8"">0</Current><DateUtc dt:dt=""string"">2017-10-10T17:41:49Z</DateUtc></FrequencyChange></FrequencyChanges></Clock>\n",DualSimon(I)-003004-1,59.955,59.955,1.0.0.520,1,-1137263389,Professional,2.0.10.353,2.0.10.353,10/10/2017,10/10/2017 17:41,18:41:49,2.0.10.248,1,1,1,1,CM1,List1,1,NULL,NULL,NULL,1,1,1,CM1Prac,BlockList4,3,10,2,3,NULL,NULL,NULL,NULL,NULL,NULL,NULL,NULL,NULL,w,w,TrialProc2,CM1PracTrails1,red,red,w,w,1,w,481,1,w,353
DualSimon(I),3004,1,"<?xml version=""1.0""?>\n<Clock xmlns:dt=""urn:schemas-microsoft-com:datatypes""><Description dt:dt=""string"">E-Prime Primary Realtime Clock</Description><StartTime><Timestamp dt:dt=""int"">0</Timestamp><DateUtc dt:dt=""string"">2017-10-10T17:41:49Z</DateUtc></StartTime><FrequencyChanges><FrequencyChange><Frequency dt:dt=""r8"">2923154</Frequency><Timestamp dt:dt=""r8"">325279697359</Timestamp><Current dt:dt=""r8"">0</Current><DateUtc dt:dt=""string"">2017-10-10T17:41:49Z</DateUtc></FrequencyChange></FrequencyChanges></Clock>\n",DualSimon(I)-003004-1,59.955,59.955,1.0.0.520,1,-1137263389,Professional,2.0.10.353,2.0.10.353,10/10/2017,10/10/2017 17:41,18:41:49,2.0.10.248,1,1,1,1,CM1,List1,1,NULL,NULL,NULL,1,1,1,CM1Prac,BlockList4,4,8,2,4,NULL,NULL,NULL,NULL,NULL,NULL,NULL,NULL,NULL,w,e,TrialProc2,CM1PracTrails1,red,blue,e,w,1,w,563,1,e,462
DualSimon(I),3004,1,"<?xml version=""1.0""?>\n<Clock xmlns:dt=""urn:schemas-microsoft-com:datatypes""><Description dt:dt=""string"">E-Prime Primary Realtime Clock</Description><StartTime><Timestamp dt:dt=""int"">0</Timestamp><DateUtc dt:dt=""string"">2017-10-10T17:41:49Z</DateUtc></StartTime><FrequencyChanges><FrequencyChange><Frequency dt:dt=""r8"">2923154</Frequency><Timestamp dt:dt=""r8"">325279697359</Timestamp><Current dt:dt=""r8"">0</Current><DateUtc dt:dt=""string"">2017-10-10T17:41:49Z</DateUtc></FrequencyChange></FrequencyChanges></Clock>\n",DualSimon(I)-003004-1,59.955,59.955,1.0.0.520,1,-1137263389,Professional,2.0.10.353,2.0.10.353,10/10/2017,10/10/2017 17:41,18:41:49,2.0.10.248,1,1,1,1,CM1,List1,1,NULL,NULL,NULL,1,1,1,CM1Prac,BlockList4,5,5,2,5,NULL,NULL,NULL,NULL,NULL,NULL,NULL,NULL,NULL,e,e,TrialProc2,CM1PracTrails1,blue,blue,w,w,1,e,540,1,e,764
DualSimon(I),3004,1,"<?xml version=""1.0""?>\n<Clock xmlns:dt=""urn:schemas-microsoft-com:datatypes""><Description dt:dt=""string"">E-Prime Primary Realtime Clock</Description><StartTime><Timestamp dt:dt=""int"">0</Timestamp><DateUtc dt:dt=""string"">2017-10-10T17:41:49Z</DateUtc></StartTime><FrequencyChanges><FrequencyChange><Frequency dt:dt=""r8"">2923154</Frequency><Timestamp dt:dt=""r8"">325279697359</Timestamp><Current dt:dt=""r8"">0</Current><DateUtc dt:dt=""string"">2017-10-10T17:41:49Z</DateUtc></FrequencyChange></FrequencyChanges></Clock>\n",DualSimon(I)-003004-1,59.955,59.955,1.0.0.520,1,-1137263389,Professional,2.0.10.353,2.0.10.353,10/10/2017,10/10/2017 17:41,18:41:49,2.0.10.248,1,1,1,1,CM1,List1,1,NULL,NULL,NULL,1,1,1,CM1Prac,BlockList4,6,13,2,6,NULL,NULL,NULL,NULL,NULL,NULL,NULL,NULL,NULL,e,e,TrialProc2,CM1PracTrails1,blue,blue,w,w,0,w,728,1,e,485
DualSimon(I),3004,1,"<?xml version=""1.0""?>\n<Clock xmlns:dt=""urn:schemas-microsoft-com:datatypes""><Description dt:dt=""string"">E-Prime Primary Realtime Clock</Description><StartTime><Timestamp dt:dt=""int"">0</Timestamp><DateUtc dt:dt=""string"">2017-10-10T17:41:49Z</DateUtc></StartTime><FrequencyChanges><FrequencyChange><Frequency dt:dt=""r8"">2923154</Frequency><Timestamp dt:dt=""r8"">325279697359</Timestamp><Current dt:dt=""r8"">0</Current><DateUtc dt:dt=""string"">2017-10-10T17:41:49Z</DateUtc></FrequencyChange></FrequencyChanges></Clock>\n",DualSimon(I)-003004-1,59.955,59.955,1.0.0.520,1,-1137263389,Professional,2.0.10.353,2.0.10.353,10/10/2017,10/10/2017 17:41,18:41:49,2.0.10.248,1,1,1,1,CM1,List1,1,NULL,NULL,NULL,1,1,1,CM1Prac,BlockList4,7,2,2,7,NULL,NULL,NULL,NULL,NULL,NULL,NULL,NULL,NULL,w,w,TrialProc2,CM1PracTrails1,red,red,w,w,1,w,950,1,w,538
DualSimon(I),3004,1,"<?xml version=""1.0""?>\n<Clock xmlns:dt=""urn:schemas-microsoft-com:datatypes""><Description dt:dt=""string"">E-Prime Primary Realtime Clock</Description><StartTime><Timestamp dt:dt=""int"">0</Timestamp><DateUtc dt:dt=""string"">2017-10-10T17:41:49Z</DateUtc></StartTime><FrequencyChanges><FrequencyChange><Frequency dt:dt=""r8"">2923154</Frequency><Timestamp dt:dt=""r8"">325279697359</Timestamp><Current dt:dt=""r8"">0</Current><DateUtc dt:dt=""string"">2017-10-10T17:41:49Z</DateUtc></FrequencyChange></FrequencyChanges></Clock>\n",DualSimon(I)-003004-1,59.955,59.955,1.0.0.520,1,-1137263389,Professional,2.0.10.353,2.0.10.353,10/10/2017,10/10/2017 17:41,18:41:49,2.0.10.248,1,1,1,1,CM1,List1,1,NULL,NULL,NULL,1,1,1,CM1Prac,BlockList4,8,9,2,8,NULL,NULL,NULL,NULL,NULL,NULL,NULL,NULL,NULL,e,e,TrialProc2,CM1PracTrails1,blue,blue,e,e,1,e,1449,1,e,387
DualSimon(I),3004,1,"<?xml version=""1.0""?>\n<Clock xmlns:dt=""urn:schemas-microsoft-com:datatypes""><Description dt:dt=""string"">E-Prime Primary Realtime Clock</Description><StartTime><Timestamp dt:dt=""int"">0</Timestamp><DateUtc dt:dt=""string"">2017-10-10T17:41:49Z</DateUtc></StartTime><FrequencyChanges><FrequencyChange><Frequency dt:dt=""r8"">2923154</Frequency><Timestamp dt:dt=""r8"">325279697359</Timestamp><Current dt:dt=""r8"">0</Current><DateUtc dt:dt=""string"">2017-10-10T17:41:49Z</DateUtc></FrequencyChange></FrequencyChanges></Clock>\n",DualSimon(I)-003004-1,59.955,59.955,1.0.0.520,1,-1137263389,Professional,2.0.10.353,2.0.10.353,10/10/2017,10/10/2017 17:41,18:41:49,2.0.10.248,1,1,1,1,CM1,List1,1,NULL,NULL,NULL,1,1,1,CM1Prac,BlockList4,9,14,2,9,NULL,NULL,NULL,NULL,NULL,NULL,NULL,NULL,NULL,w,w,TrialProc2,CM1PracTrails1,red,red,e,e,1,w,481,1,w,559
DualSimon(I),3004,1,"<?xml version=""1.0""?>\n<Clock xmlns:dt=""urn:schemas-microsoft-com:datatypes""><Description dt:dt=""string"">E-Prime Primary Realtime Clock</Description><StartTime><Timestamp dt:dt=""int"">0</Timestamp><DateUtc dt:dt=""string"">2017-10-10T17:41:49Z</DateUtc></StartTime><FrequencyChanges><FrequencyChange><Frequency dt:dt=""r8"">2923154</Frequency><Timestamp dt:dt=""r8"">325279697359</Timestamp><Current dt:dt=""r8"">0</Current><DateUtc dt:dt=""string"">2017-10-10T17:41:49Z</DateUtc></FrequencyChange></FrequencyChanges></Clock>\n",DualSimon(I)-003004-1,59.955,59.955,1.0.0.520,1,-1137263389,Professional,2.0.10.353,2.0.10.353,10/10/2017,10/10/2017 17:41,18:41:49,2.0.10.248,1,1,1,1,CM1,List1,1,NULL,NULL,NULL,1,1,1,CM1Prac,BlockList4,10,15,2,10,NULL,NULL,NULL,NULL,NULL,NULL,NULL,NULL,NULL,e,w,TrialProc2,CM1PracTrails1,blue,red,w,e,1,e,439,1,w,365
DualSimon(I),3004,1,"<?xml version=""1.0""?>\n<Clock xmlns:dt=""urn:schemas-microsoft-com:datatypes""><Description dt:dt=""string"">E-Prime Primary Realtime Clock</Description><StartTime><Timestamp dt:dt=""int"">0</Timestamp><DateUtc dt:dt=""string"">2017-10-10T17:41:49Z</DateUtc></StartTime><FrequencyChanges><FrequencyChange><Frequency dt:dt=""r8"">2923154</Frequency><Timestamp dt:dt=""r8"">325279697359</Timestamp><Current dt:dt=""r8"">0</Current><DateUtc dt:dt=""string"">2017-10-10T17:41:49Z</DateUtc></FrequencyChange></FrequencyChanges></Clock>\n",DualSimon(I)-003004-1,59.955,59.955,1.0.0.520,1,-1137263389,Professional,2.0.10.353,2.0.10.353,10/10/2017,10/10/2017 17:41,18:41:49,2.0.10.248,1,1,1,1,CM1,List1,1,NULL,NULL,NULL,1,1,1,CM1Prac,BlockList4,11,7,2,11,NULL,NULL,NULL,NULL,NULL,NULL,NULL,NULL,NULL,e,w,TrialProc2,CM1PracTrails1,blue,red,w,e,1,e,423,1,w,367
DualSimon(I),3004,1,"<?xml version=""1.0""?>\n<Clock xmlns:dt=""urn:schemas-microsoft-com:datatypes""><Description dt:dt=""string"">E-Prime Primary Realtime Clock</Description><StartTime><Timestamp dt:dt=""int"">0</Timestamp><DateUtc dt:dt=""string"">2017-10-10T17:41:49Z</DateUtc></StartTime><FrequencyChanges><FrequencyChange><Frequency dt:dt=""r8"">2923154</Frequency><Timestamp dt:dt=""r8"">325279697359</Timestamp><Current dt:dt=""r8"">0</Current><DateUtc dt:dt=""string"">2017-10-10T17:41:49Z</DateUtc></FrequencyChange></FrequencyChanges></Clock>\n",DualSimon(I)-003004-1,59.955,59.955,1.0.0.520,1,-1137263389,Professional,2.0.10.353,2.0.10.353,10/10/2017,10/10/2017 17:41,18:41:49,2.0.10.248,1,1,1,1,CM1,List1,1,NULL,NULL,NULL,1,1,1,CM1Prac,BlockList4,12,6,2,12,NULL,NULL,NULL,NULL,NULL,NULL,NULL,NULL,NULL,w,w,TrialProc2,CM1PracTrails1,red,red,e,e,1,w,486,1,w,375
DualSimon(I),3004,1,"<?xml version=""1.0""?>\n<Clock xmlns:dt=""urn:schemas-microsoft-com:datatypes""><Description dt:dt=""string"">E-Prime Primary Realtime Clock</Description><StartTime><Timestamp dt:dt=""int"">0</Timestamp><DateUtc dt:dt=""string"">2017-10-10T17:41:49Z</DateUtc></StartTime><FrequencyChanges><FrequencyChange><Frequency dt:dt=""r8"">2923154</Frequency><Timestamp dt:dt=""r8"">325279697359</Timestamp><Current dt:dt=""r8"">0</Current><DateUtc dt:dt=""string"">2017-10-10T17:41:49Z</DateUtc></FrequencyChange></FrequencyChanges></Clock>\n",DualSimon(I)-003004-1,59.955,59.955,1.0.0.520,1,-1137263389,Professional,2.0.10.353,2.0.10.353,10/10/2017,10/10/2017 17:41,18:41:49,2.0.10.248,1,1,1,1,CM1,List1,1,NULL,NULL,NULL,1,1,1,CM1Prac,BlockList4,13,11,2,13,NULL,NULL,NULL,NULL,NULL,NULL,NULL,NULL,NULL,e,w,TrialProc2,CM1PracTrails1,blue,red,e,w,1,e,532,1,w,381
DualSimon(I),3004,1,"<?xml version=""1.0""?>\n<Clock xmlns:dt=""urn:schemas-microsoft-com:datatypes""><Description dt:dt=""string"">E-Prime Primary Realtime Clock</Description><StartTime><Timestamp dt:dt=""int"">0</Timestamp><DateUtc dt:dt=""string"">2017-10-10T17:41:49Z</DateUtc></StartTime><FrequencyChanges><FrequencyChange><Frequency dt:dt=""r8"">2923154</Frequency><Timestamp dt:dt=""r8"">325279697359</Timestamp><Current dt:dt=""r8"">0</Current><DateUtc dt:dt=""string"">2017-10-10T17:41:49Z</DateUtc></FrequencyChange></FrequencyChanges></Clock>\n",DualSimon(I)-003004-1,59.955,59.955,1.0.0.520,1,-1137263389,Professional,2.0.10.353,2.0.10.353,10/10/2017,10/10/2017 17:41,18:41:49,2.0.10.248,1,1,1,1,CM1,List1,1,NULL,NULL,NULL,1,1,1,CM1Prac,BlockList4,14,1,2,14,NULL,NULL,NULL,NULL,NULL,NULL,NULL,NULL,NULL,e,e,TrialProc2,CM1PracTrails1,blue,blue,e,e,1,e,468,1,e,340
DualSimon(I),3004,1,"<?xml version=""1.0""?>\n<Clock xmlns:dt=""urn:schemas-microsoft-com:datatypes""><Description dt:dt=""string"">E-Prime Primary Realtime Clock</Description><StartTime><Timestamp dt:dt=""int"">0</Timestamp><DateUtc dt:dt=""string"">2017-10-10T17:41:49Z</DateUtc></StartTime><FrequencyChanges><FrequencyChange><Frequency dt:dt=""r8"">2923154</Frequency><Timestamp dt:dt=""r8"">325279697359</Timestamp><Current dt:dt=""r8"">0</Current><DateUtc dt:dt=""string"">2017-10-10T17:41:49Z</DateUtc></FrequencyChange></FrequencyChanges></Clock>\n",DualSimon(I)-003004-1,59.955,59.955,1.0.0.520,1,-1137263389,Professional,2.0.10.353,2.0.10.353,10/10/2017,10/10/2017 17:41,18:41:49,2.0.10.248,1,1,1,1,CM1,List1,1,NULL,NULL,NULL,1,1,1,CM1Prac,BlockList4,15,12,2,15,NULL,NULL,NULL,NULL,NULL,NULL,NULL,NULL,NULL,w,e,TrialProc2,CM1PracTrails1,red,blue,w,e,1,w,317,1,e,334
DualSimon(I),3004,1,"<?xml version=""1.0""?>\n<Clock xmlns:dt=""urn:schemas-microsoft-com:datatypes""><Description dt:dt=""string"">E-Prime Primary Realtime Clock</Description><StartTime><Timestamp dt:dt=""int"">0</Timestamp><DateUtc dt:dt=""string"">2017-10-10T17:41:49Z</DateUtc></StartTime><FrequencyChanges><FrequencyChange><Frequency dt:dt=""r8"">2923154</Frequency><Timestamp dt:dt=""r8"">325279697359</Timestamp><Current dt:dt=""r8"">0</Current><DateUtc dt:dt=""string"">2017-10-10T17:41:49Z</DateUtc></FrequencyChange></FrequencyChanges></Clock>\n",DualSimon(I)-003004-1,59.955,59.955,1.0.0.520,1,-1137263389,Professional,2.0.10.353,2.0.10.353,10/10/2017,10/10/2017 17:41,18:41:49,2.0.10.248,1,1,1,1,CM1,List1,1,NULL,NULL,NULL,1,1,1,CM1Prac,BlockList4,16,16,2,16,NULL,NULL,NULL,NULL,NULL,NULL,NULL,NULL,NULL,w,e,TrialProc2,CM1PracTrails1,red,blue,e,w,1,w,570,1,e,433
DualSimon(I),3004,1,"<?xml version=""1.0""?>\n<Clock xmlns:dt=""urn:schemas-microsoft-com:datatypes""><Description dt:dt=""string"">E-Prime Primary Realtime Clock</Description><StartTime><Timestamp dt:dt=""int"">0</Timestamp><DateUtc dt:dt=""string"">2017-10-10T17:41:49Z</DateUtc></StartTime><FrequencyChanges><FrequencyChange><Frequency dt:dt=""r8"">2923154</Frequency><Timestamp dt:dt=""r8"">325279697359</Timestamp><Current dt:dt=""r8"">0</Current><DateUtc dt:dt=""string"">2017-10-10T17:41:49Z</DateUtc></FrequencyChange></FrequencyChanges></Clock>\n",DualSimon(I)-003004-1,59.955,59.955,1.0.0.520,1,-1137263389,Professional,2.0.10.353,2.0.10.353,10/10/2017,10/10/2017 17:41,18:41:49,2.0.10.248,1,1,1,1,CM1,List1,2,NULL,NULL,NULL,2,1,2,InstruProc,BlockList4,NULL,NULL,NULL,NULL,NULL,NULL,NULL,NULL,NULL,NULL,NULL,NULL,NULL,NULL,NULL,NULL,NULL,NULL,NULL,NULL,NULL,NULL,NULL,NULL,NULL,NULL,NULL
DualSimon(I),3004,1,"<?xml version=""1.0""?>\n<Clock xmlns:dt=""urn:schemas-microsoft-com:datatypes""><Description dt:dt=""string"">E-Prime Primary Realtime Clock</Description><StartTime><Timestamp dt:dt=""int"">0</Timestamp><DateUtc dt:dt=""string"">2017-10-10T17:41:49Z</DateUtc></StartTime><FrequencyChanges><FrequencyChange><Frequency dt:dt=""r8"">2923154</Frequency><Timestamp dt:dt=""r8"">325279697359</Timestamp><Current dt:dt=""r8"">0</Current><DateUtc dt:dt=""string"">2017-10-10T17:41:49Z</DateUtc></FrequencyChange></FrequencyChanges></Clock>\n",DualSimon(I)-003004-1,59.955,59.955,1.0.0.520,1,-1137263389,Professional,2.0.10.353,2.0.10.353,10/10/2017,10/10/2017 17:41,18:41:49,2.0.10.248,1,1,1,1,CM1,List1,3,NULL,NULL,NULL,3,1,3,b1,BlockList4,1,NULL,NULL,NULL,65,2,1,NULL,NULL,NULL,NULL,NULL,NULL,w,w,TrialProc,CM1Trails,red,red,e,e,1,w,989,1,w,812
DualSimon(I),3004,1,"<?xml version=""1.0""?>\n<Clock xmlns:dt=""urn:schemas-microsoft-com:datatypes""><Description dt:dt=""string"">E-Prime Primary Realtime Clock</Description><StartTime><Timestamp dt:dt=""int"">0</Timestamp><DateUtc dt:dt=""string"">2017-10-10T17:41:49Z</DateUtc></StartTime><FrequencyChanges><FrequencyChange><Frequency dt:dt=""r8"">2923154</Frequency><Timestamp dt:dt=""r8"">325279697359</Timestamp><Current dt:dt=""r8"">0</Current><DateUtc dt:dt=""string"">2017-10-10T17:41:49Z</DateUtc></FrequencyChange></FrequencyChanges></Clock>\n",DualSimon(I)-003004-1,59.955,59.955,1.0.0.520,1,-1137263389,Professional,2.0.10.353,2.0.10.353,10/10/2017,10/10/2017 17:41,18:41:49,2.0.10.248,1,1,1,1,CM1,List1,3,NULL,NULL,NULL,3,1,3,b1,BlockList4,2,NULL,NULL,NULL,35,2,2,NULL,NULL,NULL,NULL,NULL,NULL,e,w,TrialProc,CM1Trails,blue,red,e,w,1,e,599,1,w,460
DualSimon(I),3004,1,"<?xml version=""1.0""?>\n<Clock xmlns:dt=""urn:schemas-microsoft-com:datatypes""><Description dt:dt=""string"">E-Prime Primary Realtime Clock</Description><StartTime><Timestamp dt:dt=""int"">0</Timestamp><DateUtc dt:dt=""string"">2017-10-10T17:41:49Z</DateUtc></StartTime><FrequencyChanges><FrequencyChange><Frequency dt:dt=""r8"">2923154</Frequency><Timestamp dt:dt=""r8"">325279697359</Timestamp><Current dt:dt=""r8"">0</Current><DateUtc dt:dt=""string"">2017-10-10T17:41:49Z</DateUtc></FrequencyChange></FrequencyChanges></Clock>\n",DualSimon(I)-003004-1,59.955,59.955,1.0.0.520,1,-1137263389,Professional,2.0.10.353,2.0.10.353,10/10/2017,10/10/2017 17:41,18:41:49,2.0.10.248,1,1,1,1,CM1,List1,3,NULL,NULL,NULL,3,1,3,b1,BlockList4,3,NULL,NULL,NULL,28,2,3,NULL,NULL,NULL,NULL,NULL,NULL,w,w,TrialProc,CM1Trails,red,red,w,w,1,w,398,1,w,358
DualSimon(I),3004,1,"<?xml version=""1.0""?>\n<Clock xmlns:dt=""urn:schemas-microsoft-com:datatypes""><Description dt:dt=""string"">E-Prime Primary Realtime Clock</Description><StartTime><Timestamp dt:dt=""int"">0</Timestamp><DateUtc dt:dt=""string"">2017-10-10T17:41:49Z</DateUtc></StartTime><FrequencyChanges><FrequencyChange><Frequency dt:dt=""r8"">2923154</Frequency><Timestamp dt:dt=""r8"">325279697359</Timestamp><Current dt:dt=""r8"">0</Current><DateUtc dt:dt=""string"">2017-10-10T17:41:49Z</DateUtc></FrequencyChange></FrequencyChanges></Clock>\n",DualSimon(I)-003004-1,59.955,59.955,1.0.0.520,1,-1137263389,Professional,2.0.10.353,2.0.10.353,10/10/2017,10/10/2017 17:41,18:41:49,2.0.10.248,1,1,1,1,CM1,List1,3,NULL,NULL,NULL,3,1,3,b1,BlockList4,4,NULL,NULL,NULL,51,2,4,NULL,NULL,NULL,NULL,NULL,NULL,w,e,TrialProc,CM1Trails,red,blue,w,e,1,w,312,1,e,328
DualSimon(I),3004,1,"<?xml version=""1.0""?>\n<Clock xmlns:dt=""urn:schemas-microsoft-com:datatypes""><Description dt:dt=""string"">E-Prime Primary Realtime Clock</Description><StartTime><Timestamp dt:dt=""int"">0</Timestamp><DateUtc dt:dt=""string"">2017-10-10T17:41:49Z</DateUtc></StartTime><FrequencyChanges><FrequencyChange><Frequency dt:dt=""r8"">2923154</Frequency><Timestamp dt:dt=""r8"">325279697359</Timestamp><Current dt:dt=""r8"">0</Current><DateUtc dt:dt=""string"">2017-10-10T17:41:49Z</DateUtc></FrequencyChange></FrequencyChanges></Clock>\n",DualSimon(I)-003004-1,59.955,59.955,1.0.0.520,1,-1137263389,Professional,2.0.10.353,2.0.10.353,10/10/2017,10/10/2017 17:41,18:41:49,2.0.10.248,1,1,1,1,CM1,List1,3,NULL,NULL,NULL,3,1,3,b1,BlockList4,5,NULL,NULL,NULL,8,2,5,NULL,NULL,NULL,NULL,NULL,NULL,w,e,TrialProc,CM1Trails,red,blue,e,w,1,w,483,1,e,385
DualSimon(I),3004,1,"<?xml version=""1.0""?>\n<Clock xmlns:dt=""urn:schemas-microsoft-com:datatypes""><Description dt:dt=""string"">E-Prime Primary Realtime Clock</Description><StartTime><Timestamp dt:dt=""int"">0</Timestamp><DateUtc dt:dt=""string"">2017-10-10T17:41:49Z</DateUtc></StartTime><FrequencyChanges><FrequencyChange><Frequency dt:dt=""r8"">2923154</Frequency><Timestamp dt:dt=""r8"">325279697359</Timestamp><Current dt:dt=""r8"">0</Current><DateUtc dt:dt=""string"">2017-10-10T17:41:49Z</DateUtc></FrequencyChange></FrequencyChanges></Clock>\n",DualSimon(I)-003004-1,59.955,59.955,1.0.0.520,1,-1137263389,Professional,2.0.10.353,2.0.10.353,10/10/2017,10/10/2017 17:41,18:41:49,2.0.10.248,1,1,1,1,CM1,List1,3,NULL,NULL,NULL,3,1,3,b1,BlockList4,6,NULL,NULL,NULL,94,2,6,NULL,NULL,NULL,NULL,NULL,NULL,w,e,TrialProc,CM1Trails,red,blue,e,w,1,w,323,0,w,312
DualSimon(I),3004,1,"<?xml version=""1.0""?>\n<Clock xmlns:dt=""urn:schemas-microsoft-com:datatypes""><Description dt:dt=""string"">E-Prime Primary Realtime Clock</Description><StartTime><Timestamp dt:dt=""int"">0</Timestamp><DateUtc dt:dt=""string"">2017-10-10T17:41:49Z</DateUtc></StartTime><FrequencyChanges><FrequencyChange><Frequency dt:dt=""r8"">2923154</Frequency><Timestamp dt:dt=""r8"">325279697359</Timestamp><Current dt:dt=""r8"">0</Current><DateUtc dt:dt=""string"">2017-10-10T17:41:49Z</DateUtc></FrequencyChange></FrequencyChanges></Clock>\n",DualSimon(I)-003004-1,59.955,59.955,1.0.0.520,1,-1137263389,Professional,2.0.10.353,2.0.10.353,10/10/2017,10/10/2017 17:41,18:41:49,2.0.10.248,1,1,1,1,CM1,List1,3,NULL,NULL,NULL,3,1,3,b1,BlockList4,7,NULL,NULL,NULL,56,2,7,NULL,NULL,NULL,NULL,NULL,NULL,e,e,TrialProc,CM1Trails,blue,blue,w,w,1,e,359,1,e,426
DualSimon(I),3004,1,"<?xml version=""1.0""?>\n<Clock xmlns:dt=""urn:schemas-microsoft-com:datatypes""><Description dt:dt=""string"">E-Prime Primary Realtime Clock</Description><StartTime><Timestamp dt:dt=""int"">0</Timestamp><DateUtc dt:dt=""string"">2017-10-10T17:41:49Z</DateUtc></StartTime><FrequencyChanges><FrequencyChange><Frequency dt:dt=""r8"">2923154</Frequency><Timestamp dt:dt=""r8"">325279697359</Timestamp><Current dt:dt=""r8"">0</Current><DateUtc dt:dt=""string"">2017-10-10T17:41:49Z</DateUtc></FrequencyChange></FrequencyChanges></Clock>\n",DualSimon(I)-003004-1,59.955,59.955,1.0.0.520,1,-1137263389,Professional,2.0.10.353,2.0.10.353,10/10/2017,10/10/2017 17:41,18:41:49,2.0.10.248,1,1,1,1,CM1,List1,3,NULL,NULL,NULL,3,1,3,b1,BlockList4,8,NULL,NULL,NULL,48,2,8,NULL,NULL,NULL,NULL,NULL,NULL,w,e,TrialProc,CM1Trails,red,blue,w,e,1,w,494,1,e,351
DualSimon(I),3004,1,"<?xml version=""1.0""?>\n<Clock xmlns:dt=""urn:schemas-microsoft-com:datatypes""><Description dt:dt=""string"">E-Prime Primary Realtime Clock</Description><StartTime><Timestamp dt:dt=""int"">0</Timestamp><DateUtc dt:dt=""string"">2017-10-10T17:41:49Z</DateUtc></StartTime><FrequencyChanges><FrequencyChange><Frequency dt:dt=""r8"">2923154</Frequency><Timestamp dt:dt=""r8"">325279697359</Timestamp><Current dt:dt=""r8"">0</Current><DateUtc dt:dt=""string"">2017-10-10T17:41:49Z</DateUtc></FrequencyChange></FrequencyChanges></Clock>\n",DualSimon(I)-003004-1,59.955,59.955,1.0.0.520,1,-1137263389,Professional,2.0.10.353,2.0.10.353,10/10/2017,10/10/2017 17:41,18:41:49,2.0.10.248,1,1,1,1,CM1,List1,3,NULL,NULL,NULL,3,1,3,b1,BlockList4,9,NULL,NULL,NULL,19,2,9,NULL,NULL,NULL,NULL,NULL,NULL,e,e,TrialProc,CM1Trails,blue,blue,e,e,1,e,343,1,e,394
DualSimon(I),3004,1,"<?xml version=""1.0""?>\n<Clock xmlns:dt=""urn:schemas-microsoft-com:datatypes""><Description dt:dt=""string"">E-Prime Primary Realtime Clock</Description><StartTime><Timestamp dt:dt=""int"">0</Timestamp><DateUtc dt:dt=""string"">2017-10-10T17:41:49Z</DateUtc></StartTime><FrequencyChanges><FrequencyChange><Frequency dt:dt=""r8"">2923154</Frequency><Timestamp dt:dt=""r8"">325279697359</Timestamp><Current dt:dt=""r8"">0</Current><DateUtc dt:dt=""string"">2017-10-10T17:41:49Z</DateUtc></FrequencyChange></FrequencyChanges></Clock>\n",DualSimon(I)-003004-1,59.955,59.955,1.0.0.520,1,-1137263389,Professional,2.0.10.353,2.0.10.353,10/10/2017,10/10/2017 17:41,18:41:49,2.0.10.248,1,1,1,1,CM1,List1,3,NULL,NULL,NULL,3,1,3,b1,BlockList4,10,NULL,NULL,NULL,63,2,10,NULL,NULL,NULL,NULL,NULL,NULL,e,e,TrialProc,CM1Trails,blue,blue,w,w,1,e,398,1,e,336
DualSimon(I),3004,1,"<?xml version=""1.0""?>\n<Clock xmlns:dt=""urn:schemas-microsoft-com:datatypes""><Description dt:dt=""string"">E-Prime Primary Realtime Clock</Description><StartTime><Timestamp dt:dt=""int"">0</Timestamp><DateUtc dt:dt=""string"">2017-10-10T17:41:49Z</DateUtc></StartTime><FrequencyChanges><FrequencyChange><Frequency dt:dt=""r8"">2923154</Frequency><Timestamp dt:dt=""r8"">325279697359</Timestamp><Current dt:dt=""r8"">0</Current><DateUtc dt:dt=""string"">2017-10-10T17:41:49Z</DateUtc></FrequencyChange></FrequencyChanges></Clock>\n",DualSimon(I)-003004-1,59.955,59.955,1.0.0.520,1,-1137263389,Professional,2.0.10.353,2.0.10.353,10/10/2017,10/10/2017 17:41,18:41:49,2.0.10.248,1,1,1,1,CM1,List1,3,NULL,NULL,NULL,3,1,3,b1,BlockList4,11,NULL,NULL,NULL,45,2,11,NULL,NULL,NULL,NULL,NULL,NULL,w,e,TrialProc,CM1Trails,red,blue,w,e,1,w,344,1,e,353
DualSimon(I),3004,1,"<?xml version=""1.0""?>\n<Clock xmlns:dt=""urn:schemas-microsoft-com:datatypes""><Description dt:dt=""string"">E-Prime Primary Realtime Clock</Description><StartTime><Timestamp dt:dt=""int"">0</Timestamp><DateUtc dt:dt=""string"">2017-10-10T17:41:49Z</DateUtc></StartTime><FrequencyChanges><FrequencyChange><Frequency dt:dt=""r8"">2923154</Frequency><Timestamp dt:dt=""r8"">325279697359</Timestamp><Current dt:dt=""r8"">0</Current><DateUtc dt:dt=""string"">2017-10-10T17:41:49Z</DateUtc></FrequencyChange></FrequencyChanges></Clock>\n",DualSimon(I)-003004-1,59.955,59.955,1.0.0.520,1,-1137263389,Professional,2.0.10.353,2.0.10.353,10/10/2017,10/10/2017 17:41,18:41:49,2.0.10.248,1,1,1,1,CM1,List1,3,NULL,NULL,NULL,3,1,3,b1,BlockList4,12,NULL,NULL,NULL,74,2,12,NULL,NULL,NULL,NULL,NULL,NULL,w,w,TrialProc,CM1Trails,red,red,e,e,1,w,335,1,w,496
DualSimon(I),3004,1,"<?xml version=""1.0""?>\n<Clock xmlns:dt=""urn:schemas-microsoft-com:datatypes""><Description dt:dt=""string"">E-Prime Primary Realtime Clock</Description><StartTime><Timestamp dt:dt=""int"">0</Timestamp><DateUtc dt:dt=""string"">2017-10-10T17:41:49Z</DateUtc></StartTime><FrequencyChanges><FrequencyChange><Frequency dt:dt=""r8"">2923154</Frequency><Timestamp dt:dt=""r8"">325279697359</Timestamp><Current dt:dt=""r8"">0</Current><DateUtc dt:dt=""string"">2017-10-10T17:41:49Z</DateUtc></FrequencyChange></FrequencyChanges></Clock>\n",DualSimon(I)-003004-1,59.955,59.955,1.0.0.520,1,-1137263389,Professional,2.0.10.353,2.0.10.353,10/10/2017,10/10/2017 17:41,18:41:49,2.0.10.248,1,1,1,1,CM1,List1,3,NULL,NULL,NULL,3,1,3,b1,BlockList4,13,NULL,NULL,NULL,54,2,13,NULL,NULL,NULL,NULL,NULL,NULL,e,e,TrialProc,CM1Trails,blue,blue,w,w,1,e,471,1,e,378
DualSimon(I),3004,1,"<?xml version=""1.0""?>\n<Clock xmlns:dt=""urn:schemas-microsoft-com:datatypes""><Description dt:dt=""string"">E-Prime Primary Realtime Clock</Description><StartTime><Timestamp dt:dt=""int"">0</Timestamp><DateUtc dt:dt=""string"">2017-10-10T17:41:49Z</DateUtc></StartTime><FrequencyChanges><FrequencyChange><Frequency dt:dt=""r8"">2923154</Frequency><Timestamp dt:dt=""r8"">325279697359</Timestamp><Current dt:dt=""r8"">0</Current><DateUtc dt:dt=""string"">2017-10-10T17:41:49Z</DateUtc></FrequencyChange></FrequencyChanges></Clock>\n",DualSimon(I)-003004-1,59.955,59.955,1.0.0.520,1,-1137263389,Professional,2.0.10.353,2.0.10.353,10/10/2017,10/10/2017 17:41,18:41:49,2.0.10.248,1,1,1,1,CM1,List1,3,NULL,NULL,NULL,3,1,3,b1,BlockList4,14,NULL,NULL,NULL,30,2,14,NULL,NULL,NULL,NULL,NULL,NULL,w,w,TrialProc,CM1Trails,red,red,w,w,1,w,313,1,w,366
DualSimon(I),3004,1,"<?xml version=""1.0""?>\n<Clock xmlns:dt=""urn:schemas-microsoft-com:datatypes""><Description dt:dt=""string"">E-Prime Primary Realtime Clock</Description><StartTime><Timestamp dt:dt=""int"">0</Timestamp><DateUtc dt:dt=""string"">2017-10-10T17:41:49Z</DateUtc></StartTime><FrequencyChanges><FrequencyChange><Frequency dt:dt=""r8"">2923154</Frequency><Timestamp dt:dt=""r8"">325279697359</Timestamp><Current dt:dt=""r8"">0</Current><DateUtc dt:dt=""string"">2017-10-10T17:41:49Z</DateUtc></FrequencyChange></FrequencyChanges></Clock>\n",DualSimon(I)-003004-1,59.955,59.955,1.0.0.520,1,-1137263389,Professional,2.0.10.353,2.0.10.353,10/10/2017,10/10/2017 17:41,18:41:49,2.0.10.248,1,1,1,1,CM1,List1,3,NULL,NULL,NULL,3,1,3,b1,BlockList4,15,NULL,NULL,NULL,78,2,15,NULL,NULL,NULL,NULL,NULL,NULL,e,w,TrialProc,CM1Trails,blue,red,w,e,1,e,529,1,w,385
DualSimon(I),3004,1,"<?xml version=""1.0""?>\n<Clock xmlns:dt=""urn:schemas-microsoft-com:datatypes""><Description dt:dt=""string"">E-Prime Primary Realtime Clock</Description><StartTime><Timestamp dt:dt=""int"">0</Timestamp><DateUtc dt:dt=""string"">2017-10-10T17:41:49Z</DateUtc></StartTime><FrequencyChanges><FrequencyChange><Frequency dt:dt=""r8"">2923154</Frequency><Timestamp dt:dt=""r8"">325279697359</Timestamp><Current dt:dt=""r8"">0</Current><DateUtc dt:dt=""string"">2017-10-10T17:41:49Z</DateUtc></FrequencyChange></FrequencyChanges></Clock>\n",DualSimon(I)-003004-1,59.955,59.955,1.0.0.520,1,-1137263389,Professional,2.0.10.353,2.0.10.353,10/10/2017,10/10/2017 17:41,18:41:49,2.0.10.248,1,1,1,1,CM1,List1,3,NULL,NULL,NULL,3,1,3,b1,BlockList4,16,NULL,NULL,NULL,88,2,16,NULL,NULL,NULL,NULL,NULL,NULL,w,e,TrialProc,CM1Trails,red,blue,e,w,1,w,263,1,e,353
DualSimon(I),3004,1,"<?xml version=""1.0""?>\n<Clock xmlns:dt=""urn:schemas-microsoft-com:datatypes""><Description dt:dt=""string"">E-Prime Primary Realtime Clock</Description><StartTime><Timestamp dt:dt=""int"">0</Timestamp><DateUtc dt:dt=""string"">2017-10-10T17:41:49Z</DateUtc></StartTime><FrequencyChanges><FrequencyChange><Frequency dt:dt=""r8"">2923154</Frequency><Timestamp dt:dt=""r8"">325279697359</Timestamp><Current dt:dt=""r8"">0</Current><DateUtc dt:dt=""string"">2017-10-10T17:41:49Z</DateUtc></FrequencyChange></FrequencyChanges></Clock>\n",DualSimon(I)-003004-1,59.955,59.955,1.0.0.520,1,-1137263389,Professional,2.0.10.353,2.0.10.353,10/10/2017,10/10/2017 17:41,18:41:49,2.0.10.248,1,1,1,1,CM1,List1,3,NULL,NULL,NULL,3,1,3,b1,BlockList4,17,NULL,NULL,NULL,42,2,17,NULL,NULL,NULL,NULL,NULL,NULL,w,e,TrialProc,CM1Trails,red,blue,w,e,1,w,336,1,e,1631
DualSimon(I),3004,1,"<?xml version=""1.0""?>\n<Clock xmlns:dt=""urn:schemas-microsoft-com:datatypes""><Description dt:dt=""string"">E-Prime Primary Realtime Clock</Description><StartTime><Timestamp dt:dt=""int"">0</Timestamp><DateUtc dt:dt=""string"">2017-10-10T17:41:49Z</DateUtc></StartTime><FrequencyChanges><FrequencyChange><Frequency dt:dt=""r8"">2923154</Frequency><Timestamp dt:dt=""r8"">325279697359</Timestamp><Current dt:dt=""r8"">0</Current><DateUtc dt:dt=""string"">2017-10-10T17:41:49Z</DateUtc></FrequencyChange></FrequencyChanges></Clock>\n",DualSimon(I)-003004-1,59.955,59.955,1.0.0.520,1,-1137263389,Professional,2.0.10.353,2.0.10.353,10/10/2017,10/10/2017 17:41,18:41:49,2.0.10.248,1,1,1,1,CM1,List1,3,NULL,NULL,NULL,3,1,3,b1,BlockList4,18,NULL,NULL,NULL,76,2,18,NULL,NULL,NULL,NULL,NULL,NULL,e,w,TrialProc,CM1Trails,blue,red,w,e,1,e,574,1,w,463
DualSimon(I),3004,1,"<?xml version=""1.0""?>\n<Clock xmlns:dt=""urn:schemas-microsoft-com:datatypes""><Description dt:dt=""string"">E-Prime Primary Realtime Clock</Description><StartTime><Timestamp dt:dt=""int"">0</Timestamp><DateUtc dt:dt=""string"">2017-10-10T17:41:49Z</DateUtc></StartTime><FrequencyChanges><FrequencyChange><Frequency dt:dt=""r8"">2923154</Frequency><Timestamp dt:dt=""r8"">325279697359</Timestamp><Current dt:dt=""r8"">0</Current><DateUtc dt:dt=""string"">2017-10-10T17:41:49Z</DateUtc></FrequencyChange></FrequencyChanges></Clock>\n",DualSimon(I)-003004-1,59.955,59.955,1.0.0.520,1,-1137263389,Professional,2.0.10.353,2.0.10.353,10/10/2017,10/10/2017 17:41,18:41:49,2.0.10.248,1,1,1,1,CM1,List1,3,NULL,NULL,NULL,3,1,3,b1,BlockList4,19,NULL,NULL,NULL,96,2,19,NULL,NULL,NULL,NULL,NULL,NULL,w,e,TrialProc,CM1Trails,red,blue,e,w,1,w,306,1,e,381
DualSimon(I),3004,1,"<?xml version=""1.0""?>\n<Clock xmlns:dt=""urn:schemas-microsoft-com:datatypes""><Description dt:dt=""string"">E-Prime Primary Realtime Clock</Description><StartTime><Timestamp dt:dt=""int"">0</Timestamp><DateUtc dt:dt=""string"">2017-10-10T17:41:49Z</DateUtc></StartTime><FrequencyChanges><FrequencyChange><Frequency dt:dt=""r8"">2923154</Frequency><Timestamp dt:dt=""r8"">325279697359</Timestamp><Current dt:dt=""r8"">0</Current><DateUtc dt:dt=""string"">2017-10-10T17:41:49Z</DateUtc></FrequencyChange></FrequencyChanges></Clock>\n",DualSimon(I)-003004-1,59.955,59.955,1.0.0.520,1,-1137263389,Professional,2.0.10.353,2.0.10.353,10/10/2017,10/10/2017 17:41,18:41:49,2.0.10.248,1,1,1,1,CM1,List1,3,NULL,NULL,NULL,3,1,3,b1,BlockList4,20,NULL,NULL,NULL,82,2,20,NULL,NULL,NULL,NULL,NULL,NULL,e,w,TrialProc,CM1Trails,blue,red,w,e,1,e,453,1,w,371
DualSimon(I),3004,1,"<?xml version=""1.0""?>\n<Clock xmlns:dt=""urn:schemas-microsoft-com:datatypes""><Description dt:dt=""string"">E-Prime Primary Realtime Clock</Description><StartTime><Timestamp dt:dt=""int"">0</Timestamp><DateUtc dt:dt=""string"">2017-10-10T17:41:49Z</DateUtc></StartTime><FrequencyChanges><FrequencyChange><Frequency dt:dt=""r8"">2923154</Frequency><Timestamp dt:dt=""r8"">325279697359</Timestamp><Current dt:dt=""r8"">0</Current><DateUtc dt:dt=""string"">2017-10-10T17:41:49Z</DateUtc></FrequencyChange></FrequencyChanges></Clock>\n",DualSimon(I)-003004-1,59.955,59.955,1.0.0.520,1,-1137263389,Professional,2.0.10.353,2.0.10.353,10/10/2017,10/10/2017 17:41,18:41:49,2.0.10.248,1,1,1,1,CM1,List1,3,NULL,NULL,NULL,3,1,3,b1,BlockList4,21,NULL,NULL,NULL,5,2,21,NULL,NULL,NULL,NULL,NULL,NULL,e,e,TrialProc,CM1Trails,blue,blue,w,w,1,e,415,0,w,343
DualSimon(I),3004,1,"<?xml version=""1.0""?>\n<Clock xmlns:dt=""urn:schemas-microsoft-com:datatypes""><Description dt:dt=""string"">E-Prime Primary Realtime Clock</Description><StartTime><Timestamp dt:dt=""int"">0</Timestamp><DateUtc dt:dt=""string"">2017-10-10T17:41:49Z</DateUtc></StartTime><FrequencyChanges><FrequencyChange><Frequency dt:dt=""r8"">2923154</Frequency><Timestamp dt:dt=""r8"">325279697359</Timestamp><Current dt:dt=""r8"">0</Current><DateUtc dt:dt=""string"">2017-10-10T17:41:49Z</DateUtc></FrequencyChange></FrequencyChanges></Clock>\n",DualSimon(I)-003004-1,59.955,59.955,1.0.0.520,1,-1137263389,Professional,2.0.10.353,2.0.10.353,10/10/2017,10/10/2017 17:41,18:41:49,2.0.10.248,1,1,1,1,CM1,List1,3,NULL,NULL,NULL,3,1,3,b1,BlockList4,22,NULL,NULL,NULL,15,2,22,NULL,NULL,NULL,NULL,NULL,NULL,e,e,TrialProc,CM1Trails,blue,blue,e,e,1,e,386,1,e,355
DualSimon(I),3004,1,"<?xml version=""1.0""?>\n<Clock xmlns:dt=""urn:schemas-microsoft-com:datatypes""><Description dt:dt=""string"">E-Prime Primary Realtime Clock</Description><StartTime><Timestamp dt:dt=""int"">0</Timestamp><DateUtc dt:dt=""string"">2017-10-10T17:41:49Z</DateUtc></StartTime><FrequencyChanges><FrequencyChange><Frequency dt:dt=""r8"">2923154</Frequency><Timestamp dt:dt=""r8"">325279697359</Timestamp><Current dt:dt=""r8"">0</Current><DateUtc dt:dt=""string"">2017-10-10T17:41:49Z</DateUtc></FrequencyChange></FrequencyChanges></Clock>\n",DualSimon(I)-003004-1,59.955,59.955,1.0.0.520,1,-1137263389,Professional,2.0.10.353,2.0.10.353,10/10/2017,10/10/2017 17:41,18:41:49,2.0.10.248,1,1,1,1,CM1,List1,3,NULL,NULL,NULL,3,1,3,b1,BlockList4,23,NULL,NULL,NULL,59,2,23,NULL,NULL,NULL,NULL,NULL,NULL,e,e,TrialProc,CM1Trails,blue,blue,w,w,1,e,363,1,e,384
DualSimon(I),3004,1,"<?xml version=""1.0""?>\n<Clock xmlns:dt=""urn:schemas-microsoft-com:datatypes""><Description dt:dt=""string"">E-Prime Primary Realtime Clock</Description><StartTime><Timestamp dt:dt=""int"">0</Timestamp><DateUtc dt:dt=""string"">2017-10-10T17:41:49Z</DateUtc></StartTime><FrequencyChanges><FrequencyChange><Frequency dt:dt=""r8"">2923154</Frequency><Timestamp dt:dt=""r8"">325279697359</Timestamp><Current dt:dt=""r8"">0</Current><DateUtc dt:dt=""string"">2017-10-10T17:41:49Z</DateUtc></FrequencyChange></FrequencyChanges></Clock>\n",DualSimon(I)-003004-1,59.955,59.955,1.0.0.520,1,-1137263389,Professional,2.0.10.353,2.0.10.353,10/10/2017,10/10/2017 17:41,18:41:49,2.0.10.248,1,1,1,1,CM1,List1,3,NULL,NULL,NULL,3,1,3,b1,BlockList4,24,NULL,NULL,NULL,89,2,24,NULL,NULL,NULL,NULL,NULL,NULL,w,e,TrialProc,CM1Trails,red,blue,e,w,1,w,424,1,e,311
DualSimon(I),3004,1,"<?xml version=""1.0""?>\n<Clock xmlns:dt=""urn:schemas-microsoft-com:datatypes""><Description dt:dt=""string"">E-Prime Primary Realtime Clock</Description><StartTime><Timestamp dt:dt=""int"">0</Timestamp><DateUtc dt:dt=""string"">2017-10-10T17:41:49Z</DateUtc></StartTime><FrequencyChanges><FrequencyChange><Frequency dt:dt=""r8"">2923154</Frequency><Timestamp dt:dt=""r8"">325279697359</Timestamp><Current dt:dt=""r8"">0</Current><DateUtc dt:dt=""string"">2017-10-10T17:41:49Z</DateUtc></FrequencyChange></FrequencyChanges></Clock>\n",DualSimon(I)-003004-1,59.955,59.955,1.0.0.520,1,-1137263389,Professional,2.0.10.353,2.0.10.353,10/10/2017,10/10/2017 17:41,18:41:49,2.0.10.248,1,1,1,1,CM1,List1,3,NULL,NULL,NULL,3,1,3,b1,BlockList4,25,NULL,NULL,NULL,6,2,25,NULL,NULL,NULL,NULL,NULL,NULL,w,w,TrialProc,CM1Trails,red,red,e,e,1,w,347,1,w,345
DualSimon(I),3004,1,"<?xml version=""1.0""?>\n<Clock xmlns:dt=""urn:schemas-microsoft-com:datatypes""><Description dt:dt=""string"">E-Prime Primary Realtime Clock</Description><StartTime><Timestamp dt:dt=""int"">0</Timestamp><DateUtc dt:dt=""string"">2017-10-10T17:41:49Z</DateUtc></StartTime><FrequencyChanges><FrequencyChange><Frequency dt:dt=""r8"">2923154</Frequency><Timestamp dt:dt=""r8"">325279697359</Timestamp><Current dt:dt=""r8"">0</Current><DateUtc dt:dt=""string"">2017-10-10T17:41:49Z</DateUtc></FrequencyChange></FrequencyChanges></Clock>\n",DualSimon(I)-003004-1,59.955,59.955,1.0.0.520,1,-1137263389,Professional,2.0.10.353,2.0.10.353,10/10/2017,10/10/2017 17:41,18:41:49,2.0.10.248,1,1,1,1,CM1,List1,3,NULL,NULL,NULL,3,1,3,b1,BlockList4,26,NULL,NULL,NULL,58,2,26,NULL,NULL,NULL,NULL,NULL,NULL,e,e,TrialProc,CM1Trails,blue,blue,w,w,1,e,596,1,e,442
DualSimon(I),3004,1,"<?xml version=""1.0""?>\n<Clock xmlns:dt=""urn:schemas-microsoft-com:datatypes""><Description dt:dt=""string"">E-Prime Primary Realtime Clock</Description><StartTime><Timestamp dt:dt=""int"">0</Timestamp><DateUtc dt:dt=""string"">2017-10-10T17:41:49Z</DateUtc></StartTime><FrequencyChanges><FrequencyChange><Frequency dt:dt=""r8"">2923154</Frequency><Timestamp dt:dt=""r8"">325279697359</Timestamp><Current dt:dt=""r8"">0</Current><DateUtc dt:dt=""string"">2017-10-10T17:41:49Z</DateUtc></FrequencyChange></FrequencyChanges></Clock>\n",DualSimon(I)-003004-1,59.955,59.955,1.0.0.520,1,-1137263389,Professional,2.0.10.353,2.0.10.353,10/10/2017,10/10/2017 17:41,18:41:49,2.0.10.248,1,1,1,1,CM1,List1,3,NULL,NULL,NULL,3,1,3,b1,BlockList4,27,NULL,NULL,NULL,37,2,27,NULL,NULL,NULL,NULL,NULL,NULL,e,w,TrialProc,CM1Trails,blue,red,e,w,1,e,590,1,w,860
DualSimon(I),3004,1,"<?xml version=""1.0""?>\n<Clock xmlns:dt=""urn:schemas-microsoft-com:datatypes""><Description dt:dt=""string"">E-Prime Primary Realtime Clock</Description><StartTime><Timestamp dt:dt=""int"">0</Timestamp><DateUtc dt:dt=""string"">2017-10-10T17:41:49Z</DateUtc></StartTime><FrequencyChanges><FrequencyChange><Frequency dt:dt=""r8"">2923154</Frequency><Timestamp dt:dt=""r8"">325279697359</Timestamp><Current dt:dt=""r8"">0</Current><DateUtc dt:dt=""string"">2017-10-10T17:41:49Z</DateUtc></FrequencyChange></FrequencyChanges></Clock>\n",DualSimon(I)-003004-1,59.955,59.955,1.0.0.520,1,-1137263389,Professional,2.0.10.353,2.0.10.353,10/10/2017,10/10/2017 17:41,18:41:49,2.0.10.248,1,1,1,1,CM1,List1,3,NULL,NULL,NULL,3,1,3,b1,BlockList4,28,NULL,NULL,NULL,47,2,28,NULL,NULL,NULL,NULL,NULL,NULL,w,e,TrialProc,CM1Trails,red,blue,w,e,1,w,453,1,e,231
DualSimon(I),3004,1,"<?xml version=""1.0""?>\n<Clock xmlns:dt=""urn:schemas-microsoft-com:datatypes""><Description dt:dt=""string"">E-Prime Primary Realtime Clock</Description><StartTime><Timestamp dt:dt=""int"">0</Timestamp><DateUtc dt:dt=""string"">2017-10-10T17:41:49Z</DateUtc></StartTime><FrequencyChanges><FrequencyChange><Frequency dt:dt=""r8"">2923154</Frequency><Timestamp dt:dt=""r8"">325279697359</Timestamp><Current dt:dt=""r8"">0</Current><DateUtc dt:dt=""string"">2017-10-10T17:41:49Z</DateUtc></FrequencyChange></FrequencyChanges></Clock>\n",DualSimon(I)-003004-1,59.955,59.955,1.0.0.520,1,-1137263389,Professional,2.0.10.353,2.0.10.353,10/10/2017,10/10/2017 17:41,18:41:49,2.0.10.248,1,1,1,1,CM1,List1,3,NULL,NULL,NULL,3,1,3,b1,BlockList4,29,NULL,NULL,NULL,73,2,29,NULL,NULL,NULL,NULL,NULL,NULL,w,w,TrialProc,CM1Trails,red,red,e,e,1,w,516,1,w,402
DualSimon(I),3004,1,"<?xml version=""1.0""?>\n<Clock xmlns:dt=""urn:schemas-microsoft-com:datatypes""><Description dt:dt=""string"">E-Prime Primary Realtime Clock</Description><StartTime><Timestamp dt:dt=""int"">0</Timestamp><DateUtc dt:dt=""string"">2017-10-10T17:41:49Z</DateUtc></StartTime><FrequencyChanges><FrequencyChange><Frequency dt:dt=""r8"">2923154</Frequency><Timestamp dt:dt=""r8"">325279697359</Timestamp><Current dt:dt=""r8"">0</Current><DateUtc dt:dt=""string"">2017-10-10T17:41:49Z</DateUtc></FrequencyChange></FrequencyChanges></Clock>\n",DualSimon(I)-003004-1,59.955,59.955,1.0.0.520,1,-1137263389,Professional,2.0.10.353,2.0.10.353,10/10/2017,10/10/2017 17:41,18:41:49,2.0.10.248,1,1,1,1,CM1,List1,3,NULL,NULL,NULL,3,1,3,b1,BlockList4,30,NULL,NULL,NULL,12,2,30,NULL,NULL,NULL,NULL,NULL,NULL,e,e,TrialProc,CM1Trails,blue,blue,e,e,1,e,450,1,e,329
DualSimon(I),3004,1,"<?xml version=""1.0""?>\n<Clock xmlns:dt=""urn:schemas-microsoft-com:datatypes""><Description dt:dt=""string"">E-Prime Primary Realtime Clock</Description><StartTime><Timestamp dt:dt=""int"">0</Timestamp><DateUtc dt:dt=""string"">2017-10-10T17:41:49Z</DateUtc></StartTime><FrequencyChanges><FrequencyChange><Frequency dt:dt=""r8"">2923154</Frequency><Timestamp dt:dt=""r8"">325279697359</Timestamp><Current dt:dt=""r8"">0</Current><DateUtc dt:dt=""string"">2017-10-10T17:41:49Z</DateUtc></FrequencyChange></FrequencyChanges></Clock>\n",DualSimon(I)-003004-1,59.955,59.955,1.0.0.520,1,-1137263389,Professional,2.0.10.353,2.0.10.353,10/10/2017,10/10/2017 17:41,18:41:49,2.0.10.248,1,1,1,1,CM1,List1,3,NULL,NULL,NULL,3,1,3,b1,BlockList4,31,NULL,NULL,NULL,55,2,31,NULL,NULL,NULL,NULL,NULL,NULL,e,e,TrialProc,CM1Trails,blue,blue,w,w,1,e,395,1,e,404
DualSimon(I),3004,1,"<?xml version=""1.0""?>\n<Clock xmlns:dt=""urn:schemas-microsoft-com:datatypes""><Description dt:dt=""string"">E-Prime Primary Realtime Clock</Description><StartTime><Timestamp dt:dt=""int"">0</Timestamp><DateUtc dt:dt=""string"">2017-10-10T17:41:49Z</DateUtc></StartTime><FrequencyChanges><FrequencyChange><Frequency dt:dt=""r8"">2923154</Frequency><Timestamp dt:dt=""r8"">325279697359</Timestamp><Current dt:dt=""r8"">0</Current><DateUtc dt:dt=""string"">2017-10-10T17:41:49Z</DateUtc></FrequencyChange></FrequencyChanges></Clock>\n",DualSimon(I)-003004-1,59.955,59.955,1.0.0.520,1,-1137263389,Professional,2.0.10.353,2.0.10.353,10/10/2017,10/10/2017 17:41,18:41:49,2.0.10.248,1,1,1,1,CM1,List1,3,NULL,NULL,NULL,3,1,3,b1,BlockList4,32,NULL,NULL,NULL,80,2,32,NULL,NULL,NULL,NULL,NULL,NULL,e,w,TrialProc,CM1Trails,blue,red,w,e,1,e,439,1,w,346
DualSimon(I),3004,1,"<?xml version=""1.0""?>\n<Clock xmlns:dt=""urn:schemas-microsoft-com:datatypes""><Description dt:dt=""string"">E-Prime Primary Realtime Clock</Description><StartTime><Timestamp dt:dt=""int"">0</Timestamp><DateUtc dt:dt=""string"">2017-10-10T17:41:49Z</DateUtc></StartTime><FrequencyChanges><FrequencyChange><Frequency dt:dt=""r8"">2923154</Frequency><Timestamp dt:dt=""r8"">325279697359</Timestamp><Current dt:dt=""r8"">0</Current><DateUtc dt:dt=""string"">2017-10-10T17:41:49Z</DateUtc></FrequencyChange></FrequencyChanges></Clock>\n",DualSimon(I)-003004-1,59.955,59.955,1.0.0.520,1,-1137263389,Professional,2.0.10.353,2.0.10.353,10/10/2017,10/10/2017 17:41,18:41:49,2.0.10.248,1,1,1,1,CM1,List1,3,NULL,NULL,NULL,3,1,3,b1,BlockList4,33,NULL,NULL,NULL,85,2,33,NULL,NULL,NULL,NULL,NULL,NULL,e,w,TrialProc,CM1Trails,blue,red,w,e,1,e,365,1,w,677
DualSimon(I),3004,1,"<?xml version=""1.0""?>\n<Clock xmlns:dt=""urn:schemas-microsoft-com:datatypes""><Description dt:dt=""string"">E-Prime Primary Realtime Clock</Description><StartTime><Timestamp dt:dt=""int"">0</Timestamp><DateUtc dt:dt=""string"">2017-10-10T17:41:49Z</DateUtc></StartTime><FrequencyChanges><FrequencyChange><Frequency dt:dt=""r8"">2923154</Frequency><Timestamp dt:dt=""r8"">325279697359</Timestamp><Current dt:dt=""r8"">0</Current><DateUtc dt:dt=""string"">2017-10-10T17:41:49Z</DateUtc></FrequencyChange></FrequencyChanges></Clock>\n",DualSimon(I)-003004-1,59.955,59.955,1.0.0.520,1,-1137263389,Professional,2.0.10.353,2.0.10.353,10/10/2017,10/10/2017 17:41,18:41:49,2.0.10.248,1,1,1,1,CM1,List1,3,NULL,NULL,NULL,3,1,3,b1,BlockList4,34,NULL,NULL,NULL,72,2,34,NULL,NULL,NULL,NULL,NULL,NULL,w,w,TrialProc,CM1Trails,red,red,e,e,1,w,476,1,w,393
DualSimon(I),3004,1,"<?xml version=""1.0""?>\n<Clock xmlns:dt=""urn:schemas-microsoft-com:datatypes""><Description dt:dt=""string"">E-Prime Primary Realtime Clock</Description><StartTime><Timestamp dt:dt=""int"">0</Timestamp><DateUtc dt:dt=""string"">2017-10-10T17:41:49Z</DateUtc></StartTime><FrequencyChanges><FrequencyChange><Frequency dt:dt=""r8"">2923154</Frequency><Timestamp dt:dt=""r8"">325279697359</Timestamp><Current dt:dt=""r8"">0</Current><DateUtc dt:dt=""string"">2017-10-10T17:41:49Z</DateUtc></FrequencyChange></FrequencyChanges></Clock>\n",DualSimon(I)-003004-1,59.955,59.955,1.0.0.520,1,-1137263389,Professional,2.0.10.353,2.0.10.353,10/10/2017,10/10/2017 17:41,18:41:49,2.0.10.248,1,1,1,1,CM1,List1,3,NULL,NULL,NULL,3,1,3,b1,BlockList4,35,NULL,NULL,NULL,75,2,35,NULL,NULL,NULL,NULL,NULL,NULL,e,w,TrialProc,CM1Trails,blue,red,w,e,1,e,392,1,w,291
DualSimon(I),3004,1,"<?xml version=""1.0""?>\n<Clock xmlns:dt=""urn:schemas-microsoft-com:datatypes""><Description dt:dt=""string"">E-Prime Primary Realtime Clock</Description><StartTime><Timestamp dt:dt=""int"">0</Timestamp><DateUtc dt:dt=""string"">2017-10-10T17:41:49Z</DateUtc></StartTime><FrequencyChanges><FrequencyChange><Frequency dt:dt=""r8"">2923154</Frequency><Timestamp dt:dt=""r8"">325279697359</Timestamp><Current dt:dt=""r8"">0</Current><DateUtc dt:dt=""string"">2017-10-10T17:41:49Z</DateUtc></FrequencyChange></FrequencyChanges></Clock>\n",DualSimon(I)-003004-1,59.955,59.955,1.0.0.520,1,-1137263389,Professional,2.0.10.353,2.0.10.353,10/10/2017,10/10/2017 17:41,18:41:49,2.0.10.248,1,1,1,1,CM1,List1,3,NULL,NULL,NULL,3,1,3,b1,BlockList4,36,NULL,NULL,NULL,86,2,36,NULL,NULL,NULL,NULL,NULL,NULL,w,e,TrialProc,CM1Trails,red,blue,e,w,0,e,643,1,e,405
DualSimon(I),3004,1,"<?xml version=""1.0""?>\n<Clock xmlns:dt=""urn:schemas-microsoft-com:datatypes""><Description dt:dt=""string"">E-Prime Primary Realtime Clock</Description><StartTime><Timestamp dt:dt=""int"">0</Timestamp><DateUtc dt:dt=""string"">2017-10-10T17:41:49Z</DateUtc></StartTime><FrequencyChanges><FrequencyChange><Frequency dt:dt=""r8"">2923154</Frequency><Timestamp dt:dt=""r8"">325279697359</Timestamp><Current dt:dt=""r8"">0</Current><DateUtc dt:dt=""string"">2017-10-10T17:41:49Z</DateUtc></FrequencyChange></FrequencyChanges></Clock>\n",DualSimon(I)-003004-1,59.955,59.955,1.0.0.520,1,-1137263389,Professional,2.0.10.353,2.0.10.353,10/10/2017,10/10/2017 17:41,18:41:49,2.0.10.248,1,1,1,1,CM1,List1,3,NULL,NULL,NULL,3,1,3,b1,BlockList4,37,NULL,NULL,NULL,95,2,37,NULL,NULL,NULL,NULL,NULL,NULL,w,e,TrialProc,CM1Trails,red,blue,e,w,1,w,609,1,e,470
DualSimon(I),3004,1,"<?xml version=""1.0""?>\n<Clock xmlns:dt=""urn:schemas-microsoft-com:datatypes""><Description dt:dt=""string"">E-Prime Primary Realtime Clock</Description><StartTime><Timestamp dt:dt=""int"">0</Timestamp><DateUtc dt:dt=""string"">2017-10-10T17:41:49Z</DateUtc></StartTime><FrequencyChanges><FrequencyChange><Frequency dt:dt=""r8"">2923154</Frequency><Timestamp dt:dt=""r8"">325279697359</Timestamp><Current dt:dt=""r8"">0</Current><DateUtc dt:dt=""string"">2017-10-10T17:41:49Z</DateUtc></FrequencyChange></FrequencyChanges></Clock>\n",DualSimon(I)-003004-1,59.955,59.955,1.0.0.520,1,-1137263389,Professional,2.0.10.353,2.0.10.353,10/10/2017,10/10/2017 17:41,18:41:49,2.0.10.248,1,1,1,1,CM1,List1,3,NULL,NULL,NULL,3,1,3,b1,BlockList4,38,NULL,NULL,NULL,34,2,38,NULL,NULL,NULL,NULL,NULL,NULL,e,w,TrialProc,CM1Trails,blue,red,e,w,1,e,395,1,w,577
DualSimon(I),3004,1,"<?xml version=""1.0""?>\n<Clock xmlns:dt=""urn:schemas-microsoft-com:datatypes""><Description dt:dt=""string"">E-Prime Primary Realtime Clock</Description><StartTime><Timestamp dt:dt=""int"">0</Timestamp><DateUtc dt:dt=""string"">2017-10-10T17:41:49Z</DateUtc></StartTime><FrequencyChanges><FrequencyChange><Frequency dt:dt=""r8"">2923154</Frequency><Timestamp dt:dt=""r8"">325279697359</Timestamp><Current dt:dt=""r8"">0</Current><DateUtc dt:dt=""string"">2017-10-10T17:41:49Z</DateUtc></FrequencyChange></FrequencyChanges></Clock>\n",DualSimon(I)-003004-1,59.955,59.955,1.0.0.520,1,-1137263389,Professional,2.0.10.353,2.0.10.353,10/10/2017,10/10/2017 17:41,18:41:49,2.0.10.248,1,1,1,1,CM1,List1,3,NULL,NULL,NULL,3,1,3,b1,BlockList4,39,NULL,NULL,NULL,50,2,39,NULL,NULL,NULL,NULL,NULL,NULL,w,e,TrialProc,CM1Trails,red,blue,w,e,1,w,474,1,e,403
DualSimon(I),3004,1,"<?xml version=""1.0""?>\n<Clock xmlns:dt=""urn:schemas-microsoft-com:datatypes""><Description dt:dt=""string"">E-Prime Primary Realtime Clock</Description><StartTime><Timestamp dt:dt=""int"">0</Timestamp><DateUtc dt:dt=""string"">2017-10-10T17:41:49Z</DateUtc></StartTime><FrequencyChanges><FrequencyChange><Frequency dt:dt=""r8"">2923154</Frequency><Timestamp dt:dt=""r8"">325279697359</Timestamp><Current dt:dt=""r8"">0</Current><DateUtc dt:dt=""string"">2017-10-10T17:41:49Z</DateUtc></FrequencyChange></FrequencyChanges></Clock>\n",DualSimon(I)-003004-1,59.955,59.955,1.0.0.520,1,-1137263389,Professional,2.0.10.353,2.0.10.353,10/10/2017,10/10/2017 17:41,18:41:49,2.0.10.248,1,1,1,1,CM1,List1,3,NULL,NULL,NULL,3,1,3,b1,BlockList4,40,NULL,NULL,NULL,14,2,40,NULL,NULL,NULL,NULL,NULL,NULL,e,e,TrialProc,CM1Trails,blue,blue,e,e,1,e,586,1,e,460
DualSimon(I),3004,1,"<?xml version=""1.0""?>\n<Clock xmlns:dt=""urn:schemas-microsoft-com:datatypes""><Description dt:dt=""string"">E-Prime Primary Realtime Clock</Description><StartTime><Timestamp dt:dt=""int"">0</Timestamp><DateUtc dt:dt=""string"">2017-10-10T17:41:49Z</DateUtc></StartTime><FrequencyChanges><FrequencyChange><Frequency dt:dt=""r8"">2923154</Frequency><Timestamp dt:dt=""r8"">325279697359</Timestamp><Current dt:dt=""r8"">0</Current><DateUtc dt:dt=""string"">2017-10-10T17:41:49Z</DateUtc></FrequencyChange></FrequencyChanges></Clock>\n",DualSimon(I)-003004-1,59.955,59.955,1.0.0.520,1,-1137263389,Professional,2.0.10.353,2.0.10.353,10/10/2017,10/10/2017 17:41,18:41:49,2.0.10.248,1,1,1,1,CM1,List1,3,NULL,NULL,NULL,3,1,3,b1,BlockList4,41,NULL,NULL,NULL,20,2,41,NULL,NULL,NULL,NULL,NULL,NULL,w,w,TrialProc,CM1Trails,red,red,w,w,1,w,401,1,w,309
DualSimon(I),3004,1,"<?xml version=""1.0""?>\n<Clock xmlns:dt=""urn:schemas-microsoft-com:datatypes""><Description dt:dt=""string"">E-Prime Primary Realtime Clock</Description><StartTime><Timestamp dt:dt=""int"">0</Timestamp><DateUtc dt:dt=""string"">2017-10-10T17:41:49Z</DateUtc></StartTime><FrequencyChanges><FrequencyChange><Frequency dt:dt=""r8"">2923154</Frequency><Timestamp dt:dt=""r8"">325279697359</Timestamp><Current dt:dt=""r8"">0</Current><DateUtc dt:dt=""string"">2017-10-10T17:41:49Z</DateUtc></FrequencyChange></FrequencyChanges></Clock>\n",DualSimon(I)-003004-1,59.955,59.955,1.0.0.520,1,-1137263389,Professional,2.0.10.353,2.0.10.353,10/10/2017,10/10/2017 17:41,18:41:49,2.0.10.248,1,1,1,1,CM1,List1,3,NULL,NULL,NULL,3,1,3,b1,BlockList4,42,NULL,NULL,NULL,69,2,42,NULL,NULL,NULL,NULL,NULL,NULL,w,w,TrialProc,CM1Trails,red,red,e,e,1,w,487,0,e,344
DualSimon(I),3004,1,"<?xml version=""1.0""?>\n<Clock xmlns:dt=""urn:schemas-microsoft-com:datatypes""><Description dt:dt=""string"">E-Prime Primary Realtime Clock</Description><StartTime><Timestamp dt:dt=""int"">0</Timestamp><DateUtc dt:dt=""string"">2017-10-10T17:41:49Z</DateUtc></StartTime><FrequencyChanges><FrequencyChange><Frequency dt:dt=""r8"">2923154</Frequency><Timestamp dt:dt=""r8"">325279697359</Timestamp><Current dt:dt=""r8"">0</Current><DateUtc dt:dt=""string"">2017-10-10T17:41:49Z</DateUtc></FrequencyChange></FrequencyChanges></Clock>\n",DualSimon(I)-003004-1,59.955,59.955,1.0.0.520,1,-1137263389,Professional,2.0.10.353,2.0.10.353,10/10/2017,10/10/2017 17:41,18:41:49,2.0.10.248,1,1,1,1,CM1,List1,3,NULL,NULL,NULL,3,1,3,b1,BlockList4,43,NULL,NULL,NULL,53,2,43,NULL,NULL,NULL,NULL,NULL,NULL,e,e,TrialProc,CM1Trails,blue,blue,w,w,1,e,504,1,e,374
DualSimon(I),3004,1,"<?xml version=""1.0""?>\n<Clock xmlns:dt=""urn:schemas-microsoft-com:datatypes""><Description dt:dt=""string"">E-Prime Primary Realtime Clock</Description><StartTime><Timestamp dt:dt=""int"">0</Timestamp><DateUtc dt:dt=""string"">2017-10-10T17:41:49Z</DateUtc></StartTime><FrequencyChanges><FrequencyChange><Frequency dt:dt=""r8"">2923154</Frequency><Timestamp dt:dt=""r8"">325279697359</Timestamp><Current dt:dt=""r8"">0</Current><DateUtc dt:dt=""string"">2017-10-10T17:41:49Z</DateUtc></FrequencyChange></FrequencyChanges></Clock>\n",DualSimon(I)-003004-1,59.955,59.955,1.0.0.520,1,-1137263389,Professional,2.0.10.353,2.0.10.353,10/10/2017,10/10/2017 17:41,18:41:49,2.0.10.248,1,1,1,1,CM1,List1,3,NULL,NULL,NULL,3,1,3,b1,BlockList4,44,NULL,NULL,NULL,26,2,44,NULL,NULL,NULL,NULL,NULL,NULL,w,w,TrialProc,CM1Trails,red,red,w,w,1,w,488,1,w,384
DualSimon(I),3004,1,"<?xml version=""1.0""?>\n<Clock xmlns:dt=""urn:schemas-microsoft-com:datatypes""><Description dt:dt=""string"">E-Prime Primary Realtime Clock</Description><StartTime><Timestamp dt:dt=""int"">0</Timestamp><DateUtc dt:dt=""string"">2017-10-10T17:41:49Z</DateUtc></StartTime><FrequencyChanges><FrequencyChange><Frequency dt:dt=""r8"">2923154</Frequency><Timestamp dt:dt=""r8"">325279697359</Timestamp><Current dt:dt=""r8"">0</Current><DateUtc dt:dt=""string"">2017-10-10T17:41:49Z</DateUtc></FrequencyChange></FrequencyChanges></Clock>\n",DualSimon(I)-003004-1,59.955,59.955,1.0.0.520,1,-1137263389,Professional,2.0.10.353,2.0.10.353,10/10/2017,10/10/2017 17:41,18:41:49,2.0.10.248,1,1,1,1,CM1,List1,3,NULL,NULL,NULL,3,1,3,b1,BlockList4,45,NULL,NULL,NULL,71,2,45,NULL,NULL,NULL,NULL,NULL,NULL,w,w,TrialProc,CM1Trails,red,red,e,e,1,w,445,1,w,478
DualSimon(I),3004,1,"<?xml version=""1.0""?>\n<Clock xmlns:dt=""urn:schemas-microsoft-com:datatypes""><Description dt:dt=""string"">E-Prime Primary Realtime Clock</Description><StartTime><Timestamp dt:dt=""int"">0</Timestamp><DateUtc dt:dt=""string"">2017-10-10T17:41:49Z</DateUtc></StartTime><FrequencyChanges><FrequencyChange><Frequency dt:dt=""r8"">2923154</Frequency><Timestamp dt:dt=""r8"">325279697359</Timestamp><Current dt:dt=""r8"">0</Current><DateUtc dt:dt=""string"">2017-10-10T17:41:49Z</DateUtc></FrequencyChange></FrequencyChanges></Clock>\n",DualSimon(I)-003004-1,59.955,59.955,1.0.0.520,1,-1137263389,Professional,2.0.10.353,2.0.10.353,10/10/2017,10/10/2017 17:41,18:41:49,2.0.10.248,1,1,1,1,CM1,List1,3,NULL,NULL,NULL,3,1,3,b1,BlockList4,46,NULL,NULL,NULL,10,2,46,NULL,NULL,NULL,NULL,NULL,NULL,e,e,TrialProc,CM1Trails,blue,blue,e,e,1,e,355,1,e,502
DualSimon(I),3004,1,"<?xml version=""1.0""?>\n<Clock xmlns:dt=""urn:schemas-microsoft-com:datatypes""><Description dt:dt=""string"">E-Prime Primary Realtime Clock</Description><StartTime><Timestamp dt:dt=""int"">0</Timestamp><DateUtc dt:dt=""string"">2017-10-10T17:41:49Z</DateUtc></StartTime><FrequencyChanges><FrequencyChange><Frequency dt:dt=""r8"">2923154</Frequency><Timestamp dt:dt=""r8"">325279697359</Timestamp><Current dt:dt=""r8"">0</Current><DateUtc dt:dt=""string"">2017-10-10T17:41:49Z</DateUtc></FrequencyChange></FrequencyChanges></Clock>\n",DualSimon(I)-003004-1,59.955,59.955,1.0.0.520,1,-1137263389,Professional,2.0.10.353,2.0.10.353,10/10/2017,10/10/2017 17:41,18:41:49,2.0.10.248,1,1,1,1,CM1,List1,3,NULL,NULL,NULL,3,1,3,b1,BlockList4,47,NULL,NULL,NULL,3,2,47,NULL,NULL,NULL,NULL,NULL,NULL,e,w,TrialProc,CM1Trails,blue,red,e,w,1,e,361,1,w,305
DualSimon(I),3004,1,"<?xml version=""1.0""?>\n<Clock xmlns:dt=""urn:schemas-microsoft-com:datatypes""><Description dt:dt=""string"">E-Prime Primary Realtime Clock</Description><StartTime><Timestamp dt:dt=""int"">0</Timestamp><DateUtc dt:dt=""string"">2017-10-10T17:41:49Z</DateUtc></StartTime><FrequencyChanges><FrequencyChange><Frequency dt:dt=""r8"">2923154</Frequency><Timestamp dt:dt=""r8"">325279697359</Timestamp><Current dt:dt=""r8"">0</Current><DateUtc dt:dt=""string"">2017-10-10T17:41:49Z</DateUtc></FrequencyChange></FrequencyChanges></Clock>\n",DualSimon(I)-003004-1,59.955,59.955,1.0.0.520,1,-1137263389,Professional,2.0.10.353,2.0.10.353,10/10/2017,10/10/2017 17:41,18:41:49,2.0.10.248,1,1,1,1,CM1,List1,3,NULL,NULL,NULL,3,1,3,b1,BlockList4,48,NULL,NULL,NULL,16,2,48,NULL,NULL,NULL,NULL,NULL,NULL,e,e,TrialProc,CM1Trails,blue,blue,e,e,1,e,283,1,e,462
DualSimon(I),3004,1,"<?xml version=""1.0""?>\n<Clock xmlns:dt=""urn:schemas-microsoft-com:datatypes""><Description dt:dt=""string"">E-Prime Primary Realtime Clock</Description><StartTime><Timestamp dt:dt=""int"">0</Timestamp><DateUtc dt:dt=""string"">2017-10-10T17:41:49Z</DateUtc></StartTime><FrequencyChanges><FrequencyChange><Frequency dt:dt=""r8"">2923154</Frequency><Timestamp dt:dt=""r8"">325279697359</Timestamp><Current dt:dt=""r8"">0</Current><DateUtc dt:dt=""string"">2017-10-10T17:41:49Z</DateUtc></FrequencyChange></FrequencyChanges></Clock>\n",DualSimon(I)-003004-1,59.955,59.955,1.0.0.520,1,-1137263389,Professional,2.0.10.353,2.0.10.353,10/10/2017,10/10/2017 17:41,18:41:49,2.0.10.248,1,1,1,1,CM1,List1,3,NULL,NULL,NULL,3,1,3,b1,BlockList4,49,NULL,NULL,NULL,27,2,49,NULL,NULL,NULL,NULL,NULL,NULL,w,w,TrialProc,CM1Trails,red,red,w,w,1,w,277,1,w,287
DualSimon(I),3004,1,"<?xml version=""1.0""?>\n<Clock xmlns:dt=""urn:schemas-microsoft-com:datatypes""><Description dt:dt=""string"">E-Prime Primary Realtime Clock</Description><StartTime><Timestamp dt:dt=""int"">0</Timestamp><DateUtc dt:dt=""string"">2017-10-10T17:41:49Z</DateUtc></StartTime><FrequencyChanges><FrequencyChange><Frequency dt:dt=""r8"">2923154</Frequency><Timestamp dt:dt=""r8"">325279697359</Timestamp><Current dt:dt=""r8"">0</Current><DateUtc dt:dt=""string"">2017-10-10T17:41:49Z</DateUtc></FrequencyChange></FrequencyChanges></Clock>\n",DualSimon(I)-003004-1,59.955,59.955,1.0.0.520,1,-1137263389,Professional,2.0.10.353,2.0.10.353,10/10/2017,10/10/2017 17:41,18:41:49,2.0.10.248,1,1,1,1,CM1,List1,3,NULL,NULL,NULL,3,1,3,b1,BlockList4,50,NULL,NULL,NULL,79,2,50,NULL,NULL,NULL,NULL,NULL,NULL,e,w,TrialProc,CM1Trails,blue,red,w,e,1,e,335,1,w,402
DualSimon(I),3004,1,"<?xml version=""1.0""?>\n<Clock xmlns:dt=""urn:schemas-microsoft-com:datatypes""><Description dt:dt=""string"">E-Prime Primary Realtime Clock</Description><StartTime><Timestamp dt:dt=""int"">0</Timestamp><DateUtc dt:dt=""string"">2017-10-10T17:41:49Z</DateUtc></StartTime><FrequencyChanges><FrequencyChange><Frequency dt:dt=""r8"">2923154</Frequency><Timestamp dt:dt=""r8"">325279697359</Timestamp><Current dt:dt=""r8"">0</Current><DateUtc dt:dt=""string"">2017-10-10T17:41:49Z</DateUtc></FrequencyChange></FrequencyChanges></Clock>\n",DualSimon(I)-003004-1,59.955,59.955,1.0.0.520,1,-1137263389,Professional,2.0.10.353,2.0.10.353,10/10/2017,10/10/2017 17:41,18:41:49,2.0.10.248,1,1,1,1,CM1,List1,3,NULL,NULL,NULL,3,1,3,b1,BlockList4,51,NULL,NULL,NULL,32,2,51,NULL,NULL,NULL,NULL,NULL,NULL,e,w,TrialProc,CM1Trails,blue,red,e,w,1,e,330,1,w,368
DualSimon(I),3004,1,"<?xml version=""1.0""?>\n<Clock xmlns:dt=""urn:schemas-microsoft-com:datatypes""><Description dt:dt=""string"">E-Prime Primary Realtime Clock</Description><StartTime><Timestamp dt:dt=""int"">0</Timestamp><DateUtc dt:dt=""string"">2017-10-10T17:41:49Z</DateUtc></StartTime><FrequencyChanges><FrequencyChange><Frequency dt:dt=""r8"">2923154</Frequency><Timestamp dt:dt=""r8"">325279697359</Timestamp><Current dt:dt=""r8"">0</Current><DateUtc dt:dt=""string"">2017-10-10T17:41:49Z</DateUtc></FrequencyChange></FrequencyChanges></Clock>\n",DualSimon(I)-003004-1,59.955,59.955,1.0.0.520,1,-1137263389,Professional,2.0.10.353,2.0.10.353,10/10/2017,10/10/2017 17:41,18:41:49,2.0.10.248,1,1,1,1,CM1,List1,3,NULL,NULL,NULL,3,1,3,b1,BlockList4,52,NULL,NULL,NULL,7,2,52,NULL,NULL,NULL,NULL,NULL,NULL,e,w,TrialProc,CM1Trails,blue,red,w,e,1,e,352,1,w,467
DualSimon(I),3004,1,"<?xml version=""1.0""?>\n<Clock xmlns:dt=""urn:schemas-microsoft-com:datatypes""><Description dt:dt=""string"">E-Prime Primary Realtime Clock</Description><StartTime><Timestamp dt:dt=""int"">0</Timestamp><DateUtc dt:dt=""string"">2017-10-10T17:41:49Z</DateUtc></StartTime><FrequencyChanges><FrequencyChange><Frequency dt:dt=""r8"">2923154</Frequency><Timestamp dt:dt=""r8"">325279697359</Timestamp><Current dt:dt=""r8"">0</Current><DateUtc dt:dt=""string"">2017-10-10T17:41:49Z</DateUtc></FrequencyChange></FrequencyChanges></Clock>\n",DualSimon(I)-003004-1,59.955,59.955,1.0.0.520,1,-1137263389,Professional,2.0.10.353,2.0.10.353,10/10/2017,10/10/2017 17:41,18:41:49,2.0.10.248,1,1,1,1,CM1,List1,3,NULL,NULL,NULL,3,1,3,b1,BlockList4,53,NULL,NULL,NULL,4,2,53,NULL,NULL,NULL,NULL,NULL,NULL,w,e,TrialProc,CM1Trails,red,blue,w,e,1,w,375,1,e,262
DualSimon(I),3004,1,"<?xml version=""1.0""?>\n<Clock xmlns:dt=""urn:schemas-microsoft-com:datatypes""><Description dt:dt=""string"">E-Prime Primary Realtime Clock</Description><StartTime><Timestamp dt:dt=""int"">0</Timestamp><DateUtc dt:dt=""string"">2017-10-10T17:41:49Z</DateUtc></StartTime><FrequencyChanges><FrequencyChange><Frequency dt:dt=""r8"">2923154</Frequency><Timestamp dt:dt=""r8"">325279697359</Timestamp><Current dt:dt=""r8"">0</Current><DateUtc dt:dt=""string"">2017-10-10T17:41:49Z</DateUtc></FrequencyChange></FrequencyChanges></Clock>\n",DualSimon(I)-003004-1,59.955,59.955,1.0.0.520,1,-1137263389,Professional,2.0.10.353,2.0.10.353,10/10/2017,10/10/2017 17:41,18:41:49,2.0.10.248,1,1,1,1,CM1,List1,3,NULL,NULL,NULL,3,1,3,b1,BlockList4,54,NULL,NULL,NULL,83,2,54,NULL,NULL,NULL,NULL,NULL,NULL,e,w,TrialProc,CM1Trails,blue,red,w,e,1,e,378,1,w,385
DualSimon(I),3004,1,"<?xml version=""1.0""?>\n<Clock xmlns:dt=""urn:schemas-microsoft-com:datatypes""><Description dt:dt=""string"">E-Prime Primary Realtime Clock</Description><StartTime><Timestamp dt:dt=""int"">0</Timestamp><DateUtc dt:dt=""string"">2017-10-10T17:41:49Z</DateUtc></StartTime><FrequencyChanges><FrequencyChange><Frequency dt:dt=""r8"">2923154</Frequency><Timestamp dt:dt=""r8"">325279697359</Timestamp><Current dt:dt=""r8"">0</Current><DateUtc dt:dt=""string"">2017-10-10T17:41:49Z</DateUtc></FrequencyChange></FrequencyChanges></Clock>\n",DualSimon(I)-003004-1,59.955,59.955,1.0.0.520,1,-1137263389,Professional,2.0.10.353,2.0.10.353,10/10/2017,10/10/2017 17:41,18:41:49,2.0.10.248,1,1,1,1,CM1,List1,3,NULL,NULL,NULL,3,1,3,b1,BlockList4,55,NULL,NULL,NULL,70,2,55,NULL,NULL,NULL,NULL,NULL,NULL,w,w,TrialProc,CM1Trails,red,red,e,e,1,w,363,1,w,379
DualSimon(I),3004,1,"<?xml version=""1.0""?>\n<Clock xmlns:dt=""urn:schemas-microsoft-com:datatypes""><Description dt:dt=""string"">E-Prime Primary Realtime Clock</Description><StartTime><Timestamp dt:dt=""int"">0</Timestamp><DateUtc dt:dt=""string"">2017-10-10T17:41:49Z</DateUtc></StartTime><FrequencyChanges><FrequencyChange><Frequency dt:dt=""r8"">2923154</Frequency><Timestamp dt:dt=""r8"">325279697359</Timestamp><Current dt:dt=""r8"">0</Current><DateUtc dt:dt=""string"">2017-10-10T17:41:49Z</DateUtc></FrequencyChange></FrequencyChanges></Clock>\n",DualSimon(I)-003004-1,59.955,59.955,1.0.0.520,1,-1137263389,Professional,2.0.10.353,2.0.10.353,10/10/2017,10/10/2017 17:41,18:41:49,2.0.10.248,1,1,1,1,CM1,List1,3,NULL,NULL,NULL,3,1,3,b1,BlockList4,56,NULL,NULL,NULL,13,2,56,NULL,NULL,NULL,NULL,NULL,NULL,e,e,TrialProc,CM1Trails,blue,blue,e,e,1,e,365,1,e,279
DualSimon(I),3004,1,"<?xml version=""1.0""?>\n<Clock xmlns:dt=""urn:schemas-microsoft-com:datatypes""><Description dt:dt=""string"">E-Prime Primary Realtime Clock</Description><StartTime><Timestamp dt:dt=""int"">0</Timestamp><DateUtc dt:dt=""string"">2017-10-10T17:41:49Z</DateUtc></StartTime><FrequencyChanges><FrequencyChange><Frequency dt:dt=""r8"">2923154</Frequency><Timestamp dt:dt=""r8"">325279697359</Timestamp><Current dt:dt=""r8"">0</Current><DateUtc dt:dt=""string"">2017-10-10T17:41:49Z</DateUtc></FrequencyChange></FrequencyChanges></Clock>\n",DualSimon(I)-003004-1,59.955,59.955,1.0.0.520,1,-1137263389,Professional,2.0.10.353,2.0.10.353,10/10/2017,10/10/2017 17:41,18:41:49,2.0.10.248,1,1,1,1,CM1,List1,3,NULL,NULL,NULL,3,1,3,b1,BlockList4,57,NULL,NULL,NULL,87,2,57,NULL,NULL,NULL,NULL,NULL,NULL,w,e,TrialProc,CM1Trails,red,blue,e,w,1,w,438,1,e,381
DualSimon(I),3004,1,"<?xml version=""1.0""?>\n<Clock xmlns:dt=""urn:schemas-microsoft-com:datatypes""><Description dt:dt=""string"">E-Prime Primary Realtime Clock</Description><StartTime><Timestamp dt:dt=""int"">0</Timestamp><DateUtc dt:dt=""string"">2017-10-10T17:41:49Z</DateUtc></StartTime><FrequencyChanges><FrequencyChange><Frequency dt:dt=""r8"">2923154</Frequency><Timestamp dt:dt=""r8"">325279697359</Timestamp><Current dt:dt=""r8"">0</Current><DateUtc dt:dt=""string"">2017-10-10T17:41:49Z</DateUtc></FrequencyChange></FrequencyChanges></Clock>\n",DualSimon(I)-003004-1,59.955,59.955,1.0.0.520,1,-1137263389,Professional,2.0.10.353,2.0.10.353,10/10/2017,10/10/2017 17:41,18:41:49,2.0.10.248,1,1,1,1,CM1,List1,3,NULL,NULL,NULL,3,1,3,b1,BlockList4,58,NULL,NULL,NULL,66,2,58,NULL,NULL,NULL,NULL,NULL,NULL,w,w,TrialProc,CM1Trails,red,red,e,e,1,w,282,1,w,427
DualSimon(I),3004,1,"<?xml version=""1.0""?>\n<Clock xmlns:dt=""urn:schemas-microsoft-com:datatypes""><Description dt:dt=""string"">E-Prime Primary Realtime Clock</Description><StartTime><Timestamp dt:dt=""int"">0</Timestamp><DateUtc dt:dt=""string"">2017-10-10T17:41:49Z</DateUtc></StartTime><FrequencyChanges><FrequencyChange><Frequency dt:dt=""r8"">2923154</Frequency><Timestamp dt:dt=""r8"">325279697359</Timestamp><Current dt:dt=""r8"">0</Current><DateUtc dt:dt=""string"">2017-10-10T17:41:49Z</DateUtc></FrequencyChange></FrequencyChanges></Clock>\n",DualSimon(I)-003004-1,59.955,59.955,1.0.0.520,1,-1137263389,Professional,2.0.10.353,2.0.10.353,10/10/2017,10/10/2017 17:41,18:41:49,2.0.10.248,1,1,1,1,CM1,List1,3,NULL,NULL,NULL,3,1,3,b1,BlockList4,59,NULL,NULL,NULL,91,2,59,NULL,NULL,NULL,NULL,NULL,NULL,w,e,TrialProc,CM1Trails,red,blue,e,w,1,w,379,1,e,339
DualSimon(I),3004,1,"<?xml version=""1.0""?>\n<Clock xmlns:dt=""urn:schemas-microsoft-com:datatypes""><Description dt:dt=""string"">E-Prime Primary Realtime Clock</Description><StartTime><Timestamp dt:dt=""int"">0</Timestamp><DateUtc dt:dt=""string"">2017-10-10T17:41:49Z</DateUtc></StartTime><FrequencyChanges><FrequencyChange><Frequency dt:dt=""r8"">2923154</Frequency><Timestamp dt:dt=""r8"">325279697359</Timestamp><Current dt:dt=""r8"">0</Current><DateUtc dt:dt=""string"">2017-10-10T17:41:49Z</DateUtc></FrequencyChange></FrequencyChanges></Clock>\n",DualSimon(I)-003004-1,59.955,59.955,1.0.0.520,1,-1137263389,Professional,2.0.10.353,2.0.10.353,10/10/2017,10/10/2017 17:41,18:41:49,2.0.10.248,1,1,1,1,CM1,List1,3,NULL,NULL,NULL,3,1,3,b1,BlockList4,60,NULL,NULL,NULL,43,2,60,NULL,NULL,NULL,NULL,NULL,NULL,w,e,TrialProc,CM1Trails,red,blue,w,e,1,w,309,0,w,270
DualSimon(I),3004,1,"<?xml version=""1.0""?>\n<Clock xmlns:dt=""urn:schemas-microsoft-com:datatypes""><Description dt:dt=""string"">E-Prime Primary Realtime Clock</Description><StartTime><Timestamp dt:dt=""int"">0</Timestamp><DateUtc dt:dt=""string"">2017-10-10T17:41:49Z</DateUtc></StartTime><FrequencyChanges><FrequencyChange><Frequency dt:dt=""r8"">2923154</Frequency><Timestamp dt:dt=""r8"">325279697359</Timestamp><Current dt:dt=""r8"">0</Current><DateUtc dt:dt=""string"">2017-10-10T17:41:49Z</DateUtc></FrequencyChange></FrequencyChanges></Clock>\n",DualSimon(I)-003004-1,59.955,59.955,1.0.0.520,1,-1137263389,Professional,2.0.10.353,2.0.10.353,10/10/2017,10/10/2017 17:41,18:41:49,2.0.10.248,1,1,1,1,CM1,List1,3,NULL,NULL,NULL,3,1,3,b1,BlockList4,61,NULL,NULL,NULL,24,2,61,NULL,NULL,NULL,NULL,NULL,NULL,w,w,TrialProc,CM1Trails,red,red,w,w,1,w,474,1,w,612
DualSimon(I),3004,1,"<?xml version=""1.0""?>\n<Clock xmlns:dt=""urn:schemas-microsoft-com:datatypes""><Description dt:dt=""string"">E-Prime Primary Realtime Clock</Description><StartTime><Timestamp dt:dt=""int"">0</Timestamp><DateUtc dt:dt=""string"">2017-10-10T17:41:49Z</DateUtc></StartTime><FrequencyChanges><FrequencyChange><Frequency dt:dt=""r8"">2923154</Frequency><Timestamp dt:dt=""r8"">325279697359</Timestamp><Current dt:dt=""r8"">0</Current><DateUtc dt:dt=""string"">2017-10-10T17:41:49Z</DateUtc></FrequencyChange></FrequencyChanges></Clock>\n",DualSimon(I)-003004-1,59.955,59.955,1.0.0.520,1,-1137263389,Professional,2.0.10.353,2.0.10.353,10/10/2017,10/10/2017 17:41,18:41:49,2.0.10.248,1,1,1,1,CM1,List1,3,NULL,NULL,NULL,3,1,3,b1,BlockList4,62,NULL,NULL,NULL,36,2,62,NULL,NULL,NULL,NULL,NULL,NULL,e,w,TrialProc,CM1Trails,blue,red,e,w,1,e,321,1,w,295
DualSimon(I),3004,1,"<?xml version=""1.0""?>\n<Clock xmlns:dt=""urn:schemas-microsoft-com:datatypes""><Description dt:dt=""string"">E-Prime Primary Realtime Clock</Description><StartTime><Timestamp dt:dt=""int"">0</Timestamp><DateUtc dt:dt=""string"">2017-10-10T17:41:49Z</DateUtc></StartTime><FrequencyChanges><FrequencyChange><Frequency dt:dt=""r8"">2923154</Frequency><Timestamp dt:dt=""r8"">325279697359</Timestamp><Current dt:dt=""r8"">0</Current><DateUtc dt:dt=""string"">2017-10-10T17:41:49Z</DateUtc></FrequencyChange></FrequencyChanges></Clock>\n",DualSimon(I)-003004-1,59.955,59.955,1.0.0.520,1,-1137263389,Professional,2.0.10.353,2.0.10.353,10/10/2017,10/10/2017 17:41,18:41:49,2.0.10.248,1,1,1,1,CM1,List1,3,NULL,NULL,NULL,3,1,3,b1,BlockList4,63,NULL,NULL,NULL,57,2,63,NULL,NULL,NULL,NULL,NULL,NULL,e,e,TrialProc,CM1Trails,blue,blue,w,w,1,e,380,0,w,299
DualSimon(I),3004,1,"<?xml version=""1.0""?>\n<Clock xmlns:dt=""urn:schemas-microsoft-com:datatypes""><Description dt:dt=""string"">E-Prime Primary Realtime Clock</Description><StartTime><Timestamp dt:dt=""int"">0</Timestamp><DateUtc dt:dt=""string"">2017-10-10T17:41:49Z</DateUtc></StartTime><FrequencyChanges><FrequencyChange><Frequency dt:dt=""r8"">2923154</Frequency><Timestamp dt:dt=""r8"">325279697359</Timestamp><Current dt:dt=""r8"">0</Current><DateUtc dt:dt=""string"">2017-10-10T17:41:49Z</DateUtc></FrequencyChange></FrequencyChanges></Clock>\n",DualSimon(I)-003004-1,59.955,59.955,1.0.0.520,1,-1137263389,Professional,2.0.10.353,2.0.10.353,10/10/2017,10/10/2017 17:41,18:41:49,2.0.10.248,1,1,1,1,CM1,List1,3,NULL,NULL,NULL,3,1,3,b1,BlockList4,64,NULL,NULL,NULL,92,2,64,NULL,NULL,NULL,NULL,NULL,NULL,w,e,TrialProc,CM1Trails,red,blue,e,w,1,w,505,1,e,354
DualSimon(I),3004,1,"<?xml version=""1.0""?>\n<Clock xmlns:dt=""urn:schemas-microsoft-com:datatypes""><Description dt:dt=""string"">E-Prime Primary Realtime Clock</Description><StartTime><Timestamp dt:dt=""int"">0</Timestamp><DateUtc dt:dt=""string"">2017-10-10T17:41:49Z</DateUtc></StartTime><FrequencyChanges><FrequencyChange><Frequency dt:dt=""r8"">2923154</Frequency><Timestamp dt:dt=""r8"">325279697359</Timestamp><Current dt:dt=""r8"">0</Current><DateUtc dt:dt=""string"">2017-10-10T17:41:49Z</DateUtc></FrequencyChange></FrequencyChanges></Clock>\n",DualSimon(I)-003004-1,59.955,59.955,1.0.0.520,1,-1137263389,Professional,2.0.10.353,2.0.10.353,10/10/2017,10/10/2017 17:41,18:41:49,2.0.10.248,1,1,1,1,CM1,List1,3,NULL,NULL,NULL,3,1,3,b1,BlockList4,65,NULL,NULL,NULL,67,2,65,NULL,NULL,NULL,NULL,NULL,NULL,w,w,TrialProc,CM1Trails,red,red,e,e,1,w,336,1,w,473
DualSimon(I),3004,1,"<?xml version=""1.0""?>\n<Clock xmlns:dt=""urn:schemas-microsoft-com:datatypes""><Description dt:dt=""string"">E-Prime Primary Realtime Clock</Description><StartTime><Timestamp dt:dt=""int"">0</Timestamp><DateUtc dt:dt=""string"">2017-10-10T17:41:49Z</DateUtc></StartTime><FrequencyChanges><FrequencyChange><Frequency dt:dt=""r8"">2923154</Frequency><Timestamp dt:dt=""r8"">325279697359</Timestamp><Current dt:dt=""r8"">0</Current><DateUtc dt:dt=""string"">2017-10-10T17:41:49Z</DateUtc></FrequencyChange></FrequencyChanges></Clock>\n",DualSimon(I)-003004-1,59.955,59.955,1.0.0.520,1,-1137263389,Professional,2.0.10.353,2.0.10.353,10/10/2017,10/10/2017 17:41,18:41:49,2.0.10.248,1,1,1,1,CM1,List1,3,NULL,NULL,NULL,3,1,3,b1,BlockList4,66,NULL,NULL,NULL,41,2,66,NULL,NULL,NULL,NULL,NULL,NULL,e,w,TrialProc,CM1Trails,blue,red,e,w,1,e,537,1,w,530
DualSimon(I),3004,1,"<?xml version=""1.0""?>\n<Clock xmlns:dt=""urn:schemas-microsoft-com:datatypes""><Description dt:dt=""string"">E-Prime Primary Realtime Clock</Description><StartTime><Timestamp dt:dt=""int"">0</Timestamp><DateUtc dt:dt=""string"">2017-10-10T17:41:49Z</DateUtc></StartTime><FrequencyChanges><FrequencyChange><Frequency dt:dt=""r8"">2923154</Frequency><Timestamp dt:dt=""r8"">325279697359</Timestamp><Current dt:dt=""r8"">0</Current><DateUtc dt:dt=""string"">2017-10-10T17:41:49Z</DateUtc></FrequencyChange></FrequencyChanges></Clock>\n",DualSimon(I)-003004-1,59.955,59.955,1.0.0.520,1,-1137263389,Professional,2.0.10.353,2.0.10.353,10/10/2017,10/10/2017 17:41,18:41:49,2.0.10.248,1,1,1,1,CM1,List1,3,NULL,NULL,NULL,3,1,3,b1,BlockList4,67,NULL,NULL,NULL,61,2,67,NULL,NULL,NULL,NULL,NULL,NULL,e,e,TrialProc,CM1Trails,blue,blue,w,w,1,e,501,1,e,470
DualSimon(I),3004,1,"<?xml version=""1.0""?>\n<Clock xmlns:dt=""urn:schemas-microsoft-com:datatypes""><Description dt:dt=""string"">E-Prime Primary Realtime Clock</Description><StartTime><Timestamp dt:dt=""int"">0</Timestamp><DateUtc dt:dt=""string"">2017-10-10T17:41:49Z</DateUtc></StartTime><FrequencyChanges><FrequencyChange><Frequency dt:dt=""r8"">2923154</Frequency><Timestamp dt:dt=""r8"">325279697359</Timestamp><Current dt:dt=""r8"">0</Current><DateUtc dt:dt=""string"">2017-10-10T17:41:49Z</DateUtc></FrequencyChange></FrequencyChanges></Clock>\n",DualSimon(I)-003004-1,59.955,59.955,1.0.0.520,1,-1137263389,Professional,2.0.10.353,2.0.10.353,10/10/2017,10/10/2017 17:41,18:41:49,2.0.10.248,1,1,1,1,CM1,List1,3,NULL,NULL,NULL,3,1,3,b1,BlockList4,68,NULL,NULL,NULL,68,2,68,NULL,NULL,NULL,NULL,NULL,NULL,w,w,TrialProc,CM1Trails,red,red,e,e,1,w,357,1,w,399
DualSimon(I),3004,1,"<?xml version=""1.0""?>\n<Clock xmlns:dt=""urn:schemas-microsoft-com:datatypes""><Description dt:dt=""string"">E-Prime Primary Realtime Clock</Description><StartTime><Timestamp dt:dt=""int"">0</Timestamp><DateUtc dt:dt=""string"">2017-10-10T17:41:49Z</DateUtc></StartTime><FrequencyChanges><FrequencyChange><Frequency dt:dt=""r8"">2923154</Frequency><Timestamp dt:dt=""r8"">325279697359</Timestamp><Current dt:dt=""r8"">0</Current><DateUtc dt:dt=""string"">2017-10-10T17:41:49Z</DateUtc></FrequencyChange></FrequencyChanges></Clock>\n",DualSimon(I)-003004-1,59.955,59.955,1.0.0.520,1,-1137263389,Professional,2.0.10.353,2.0.10.353,10/10/2017,10/10/2017 17:41,18:41:49,2.0.10.248,1,1,1,1,CM1,List1,3,NULL,NULL,NULL,3,1,3,b1,BlockList4,69,NULL,NULL,NULL,18,2,69,NULL,NULL,NULL,NULL,NULL,NULL,e,e,TrialProc,CM1Trails,blue,blue,e,e,1,e,411,1,e,273
DualSimon(I),3004,1,"<?xml version=""1.0""?>\n<Clock xmlns:dt=""urn:schemas-microsoft-com:datatypes""><Description dt:dt=""string"">E-Prime Primary Realtime Clock</Description><StartTime><Timestamp dt:dt=""int"">0</Timestamp><DateUtc dt:dt=""string"">2017-10-10T17:41:49Z</DateUtc></StartTime><FrequencyChanges><FrequencyChange><Frequency dt:dt=""r8"">2923154</Frequency><Timestamp dt:dt=""r8"">325279697359</Timestamp><Current dt:dt=""r8"">0</Current><DateUtc dt:dt=""string"">2017-10-10T17:41:49Z</DateUtc></FrequencyChange></FrequencyChanges></Clock>\n",DualSimon(I)-003004-1,59.955,59.955,1.0.0.520,1,-1137263389,Professional,2.0.10.353,2.0.10.353,10/10/2017,10/10/2017 17:41,18:41:49,2.0.10.248,1,1,1,1,CM1,List1,3,NULL,NULL,NULL,3,1,3,b1,BlockList4,70,NULL,NULL,NULL,22,2,70,NULL,NULL,NULL,NULL,NULL,NULL,w,w,TrialProc,CM1Trails,red,red,w,w,1,w,360,1,w,303
DualSimon(I),3004,1,"<?xml version=""1.0""?>\n<Clock xmlns:dt=""urn:schemas-microsoft-com:datatypes""><Description dt:dt=""string"">E-Prime Primary Realtime Clock</Description><StartTime><Timestamp dt:dt=""int"">0</Timestamp><DateUtc dt:dt=""string"">2017-10-10T17:41:49Z</DateUtc></StartTime><FrequencyChanges><FrequencyChange><Frequency dt:dt=""r8"">2923154</Frequency><Timestamp dt:dt=""r8"">325279697359</Timestamp><Current dt:dt=""r8"">0</Current><DateUtc dt:dt=""string"">2017-10-10T17:41:49Z</DateUtc></FrequencyChange></FrequencyChanges></Clock>\n",DualSimon(I)-003004-1,59.955,59.955,1.0.0.520,1,-1137263389,Professional,2.0.10.353,2.0.10.353,10/10/2017,10/10/2017 17:41,18:41:49,2.0.10.248,1,1,1,1,CM1,List1,3,NULL,NULL,NULL,3,1,3,b1,BlockList4,71,NULL,NULL,NULL,33,2,71,NULL,NULL,NULL,NULL,NULL,NULL,e,w,TrialProc,CM1Trails,blue,red,e,w,1,e,250,1,w,341
DualSimon(I),3004,1,"<?xml version=""1.0""?>\n<Clock xmlns:dt=""urn:schemas-microsoft-com:datatypes""><Description dt:dt=""string"">E-Prime Primary Realtime Clock</Description><StartTime><Timestamp dt:dt=""int"">0</Timestamp><DateUtc dt:dt=""string"">2017-10-10T17:41:49Z</DateUtc></StartTime><FrequencyChanges><FrequencyChange><Frequency dt:dt=""r8"">2923154</Frequency><Timestamp dt:dt=""r8"">325279697359</Timestamp><Current dt:dt=""r8"">0</Current><DateUtc dt:dt=""string"">2017-10-10T17:41:49Z</DateUtc></FrequencyChange></FrequencyChanges></Clock>\n",DualSimon(I)-003004-1,59.955,59.955,1.0.0.520,1,-1137263389,Professional,2.0.10.353,2.0.10.353,10/10/2017,10/10/2017 17:41,18:41:49,2.0.10.248,1,1,1,1,CM1,List1,3,NULL,NULL,NULL,3,1,3,b1,BlockList4,72,NULL,NULL,NULL,64,2,72,NULL,NULL,NULL,NULL,NULL,NULL,w,w,TrialProc,CM1Trails,red,red,e,e,1,w,330,1,w,366
DualSimon(I),3004,1,"<?xml version=""1.0""?>\n<Clock xmlns:dt=""urn:schemas-microsoft-com:datatypes""><Description dt:dt=""string"">E-Prime Primary Realtime Clock</Description><StartTime><Timestamp dt:dt=""int"">0</Timestamp><DateUtc dt:dt=""string"">2017-10-10T17:41:49Z</DateUtc></StartTime><FrequencyChanges><FrequencyChange><Frequency dt:dt=""r8"">2923154</Frequency><Timestamp dt:dt=""r8"">325279697359</Timestamp><Current dt:dt=""r8"">0</Current><DateUtc dt:dt=""string"">2017-10-10T17:41:49Z</DateUtc></FrequencyChange></FrequencyChanges></Clock>\n",DualSimon(I)-003004-1,59.955,59.955,1.0.0.520,1,-1137263389,Professional,2.0.10.353,2.0.10.353,10/10/2017,10/10/2017 17:41,18:41:49,2.0.10.248,1,1,1,1,CM1,List1,3,NULL,NULL,NULL,3,1,3,b1,BlockList4,73,NULL,NULL,NULL,25,2,73,NULL,NULL,NULL,NULL,NULL,NULL,w,w,TrialProc,CM1Trails,red,red,w,w,1,w,257,1,w,325
DualSimon(I),3004,1,"<?xml version=""1.0""?>\n<Clock xmlns:dt=""urn:schemas-microsoft-com:datatypes""><Description dt:dt=""string"">E-Prime Primary Realtime Clock</Description><StartTime><Timestamp dt:dt=""int"">0</Timestamp><DateUtc dt:dt=""string"">2017-10-10T17:41:49Z</DateUtc></StartTime><FrequencyChanges><FrequencyChange><Frequency dt:dt=""r8"">2923154</Frequency><Timestamp dt:dt=""r8"">325279697359</Timestamp><Current dt:dt=""r8"">0</Current><DateUtc dt:dt=""string"">2017-10-10T17:41:49Z</DateUtc></FrequencyChange></FrequencyChanges></Clock>\n",DualSimon(I)-003004-1,59.955,59.955,1.0.0.520,1,-1137263389,Professional,2.0.10.353,2.0.10.353,10/10/2017,10/10/2017 17:41,18:41:49,2.0.10.248,1,1,1,1,CM1,List1,3,NULL,NULL,NULL,3,1,3,b1,BlockList4,74,NULL,NULL,NULL,40,2,74,NULL,NULL,NULL,NULL,NULL,NULL,e,w,TrialProc,CM1Trails,blue,red,e,w,1,e,367,1,w,328
DualSimon(I),3004,1,"<?xml version=""1.0""?>\n<Clock xmlns:dt=""urn:schemas-microsoft-com:datatypes""><Description dt:dt=""string"">E-Prime Primary Realtime Clock</Description><StartTime><Timestamp dt:dt=""int"">0</Timestamp><DateUtc dt:dt=""string"">2017-10-10T17:41:49Z</DateUtc></StartTime><FrequencyChanges><FrequencyChange><Frequency dt:dt=""r8"">2923154</Frequency><Timestamp dt:dt=""r8"">325279697359</Timestamp><Current dt:dt=""r8"">0</Current><DateUtc dt:dt=""string"">2017-10-10T17:41:49Z</DateUtc></FrequencyChange></FrequencyChanges></Clock>\n",DualSimon(I)-003004-1,59.955,59.955,1.0.0.520,1,-1137263389,Professional,2.0.10.353,2.0.10.353,10/10/2017,10/10/2017 17:41,18:41:49,2.0.10.248,1,1,1,1,CM1,List1,3,NULL,NULL,NULL,3,1,3,b1,BlockList4,75,NULL,NULL,NULL,81,2,75,NULL,NULL,NULL,NULL,NULL,NULL,e,w,TrialProc,CM1Trails,blue,red,w,e,1,e,436,1,w,417
DualSimon(I),3004,1,"<?xml version=""1.0""?>\n<Clock xmlns:dt=""urn:schemas-microsoft-com:datatypes""><Description dt:dt=""string"">E-Prime Primary Realtime Clock</Description><StartTime><Timestamp dt:dt=""int"">0</Timestamp><DateUtc dt:dt=""string"">2017-10-10T17:41:49Z</DateUtc></StartTime><FrequencyChanges><FrequencyChange><Frequency dt:dt=""r8"">2923154</Frequency><Timestamp dt:dt=""r8"">325279697359</Timestamp><Current dt:dt=""r8"">0</Current><DateUtc dt:dt=""string"">2017-10-10T17:41:49Z</DateUtc></FrequencyChange></FrequencyChanges></Clock>\n",DualSimon(I)-003004-1,59.955,59.955,1.0.0.520,1,-1137263389,Professional,2.0.10.353,2.0.10.353,10/10/2017,10/10/2017 17:41,18:41:49,2.0.10.248,1,1,1,1,CM1,List1,3,NULL,NULL,NULL,3,1,3,b1,BlockList4,76,NULL,NULL,NULL,21,2,76,NULL,NULL,NULL,NULL,NULL,NULL,w,w,TrialProc,CM1Trails,red,red,w,w,1,w,368,1,w,292
DualSimon(I),3004,1,"<?xml version=""1.0""?>\n<Clock xmlns:dt=""urn:schemas-microsoft-com:datatypes""><Description dt:dt=""string"">E-Prime Primary Realtime Clock</Description><StartTime><Timestamp dt:dt=""int"">0</Timestamp><DateUtc dt:dt=""string"">2017-10-10T17:41:49Z</DateUtc></StartTime><FrequencyChanges><FrequencyChange><Frequency dt:dt=""r8"">2923154</Frequency><Timestamp dt:dt=""r8"">325279697359</Timestamp><Current dt:dt=""r8"">0</Current><DateUtc dt:dt=""string"">2017-10-10T17:41:49Z</DateUtc></FrequencyChange></FrequencyChanges></Clock>\n",DualSimon(I)-003004-1,59.955,59.955,1.0.0.520,1,-1137263389,Professional,2.0.10.353,2.0.10.353,10/10/2017,10/10/2017 17:41,18:41:49,2.0.10.248,1,1,1,1,CM1,List1,3,NULL,NULL,NULL,3,1,3,b1,BlockList4,77,NULL,NULL,NULL,52,2,77,NULL,NULL,NULL,NULL,NULL,NULL,w,e,TrialProc,CM1Trails,red,blue,w,e,1,w,386,1,e,406
DualSimon(I),3004,1,"<?xml version=""1.0""?>\n<Clock xmlns:dt=""urn:schemas-microsoft-com:datatypes""><Description dt:dt=""string"">E-Prime Primary Realtime Clock</Description><StartTime><Timestamp dt:dt=""int"">0</Timestamp><DateUtc dt:dt=""string"">2017-10-10T17:41:49Z</DateUtc></StartTime><FrequencyChanges><FrequencyChange><Frequency dt:dt=""r8"">2923154</Frequency><Timestamp dt:dt=""r8"">325279697359</Timestamp><Current dt:dt=""r8"">0</Current><DateUtc dt:dt=""string"">2017-10-10T17:41:49Z</DateUtc></FrequencyChange></FrequencyChanges></Clock>\n",DualSimon(I)-003004-1,59.955,59.955,1.0.0.520,1,-1137263389,Professional,2.0.10.353,2.0.10.353,10/10/2017,10/10/2017 17:41,18:41:49,2.0.10.248,1,1,1,1,CM1,List1,3,NULL,NULL,NULL,3,1,3,b1,BlockList4,78,NULL,NULL,NULL,17,2,78,NULL,NULL,NULL,NULL,NULL,NULL,e,e,TrialProc,CM1Trails,blue,blue,e,e,1,e,456,1,e,304
DualSimon(I),3004,1,"<?xml version=""1.0""?>\n<Clock xmlns:dt=""urn:schemas-microsoft-com:datatypes""><Description dt:dt=""string"">E-Prime Primary Realtime Clock</Description><StartTime><Timestamp dt:dt=""int"">0</Timestamp><DateUtc dt:dt=""string"">2017-10-10T17:41:49Z</DateUtc></StartTime><FrequencyChanges><FrequencyChange><Frequency dt:dt=""r8"">2923154</Frequency><Timestamp dt:dt=""r8"">325279697359</Timestamp><Current dt:dt=""r8"">0</Current><DateUtc dt:dt=""string"">2017-10-10T17:41:49Z</DateUtc></FrequencyChange></FrequencyChanges></Clock>\n",DualSimon(I)-003004-1,59.955,59.955,1.0.0.520,1,-1137263389,Professional,2.0.10.353,2.0.10.353,10/10/2017,10/10/2017 17:41,18:41:49,2.0.10.248,1,1,1,1,CM1,List1,3,NULL,NULL,NULL,3,1,3,b1,BlockList4,79,NULL,NULL,NULL,11,2,79,NULL,NULL,NULL,NULL,NULL,NULL,e,e,TrialProc,CM1Trails,blue,blue,e,e,1,e,291,1,e,287
DualSimon(I),3004,1,"<?xml version=""1.0""?>\n<Clock xmlns:dt=""urn:schemas-microsoft-com:datatypes""><Description dt:dt=""string"">E-Prime Primary Realtime Clock</Description><StartTime><Timestamp dt:dt=""int"">0</Timestamp><DateUtc dt:dt=""string"">2017-10-10T17:41:49Z</DateUtc></StartTime><FrequencyChanges><FrequencyChange><Frequency dt:dt=""r8"">2923154</Frequency><Timestamp dt:dt=""r8"">325279697359</Timestamp><Current dt:dt=""r8"">0</Current><DateUtc dt:dt=""string"">2017-10-10T17:41:49Z</DateUtc></FrequencyChange></FrequencyChanges></Clock>\n",DualSimon(I)-003004-1,59.955,59.955,1.0.0.520,1,-1137263389,Professional,2.0.10.353,2.0.10.353,10/10/2017,10/10/2017 17:41,18:41:49,2.0.10.248,1,1,1,1,CM1,List1,3,NULL,NULL,NULL,3,1,3,b1,BlockList4,80,NULL,NULL,NULL,31,2,80,NULL,NULL,NULL,NULL,NULL,NULL,e,w,TrialProc,CM1Trails,blue,red,e,w,1,e,266,1,w,227
DualSimon(I),3004,1,"<?xml version=""1.0""?>\n<Clock xmlns:dt=""urn:schemas-microsoft-com:datatypes""><Description dt:dt=""string"">E-Prime Primary Realtime Clock</Description><StartTime><Timestamp dt:dt=""int"">0</Timestamp><DateUtc dt:dt=""string"">2017-10-10T17:41:49Z</DateUtc></StartTime><FrequencyChanges><FrequencyChange><Frequency dt:dt=""r8"">2923154</Frequency><Timestamp dt:dt=""r8"">325279697359</Timestamp><Current dt:dt=""r8"">0</Current><DateUtc dt:dt=""string"">2017-10-10T17:41:49Z</DateUtc></FrequencyChange></FrequencyChanges></Clock>\n",DualSimon(I)-003004-1,59.955,59.955,1.0.0.520,1,-1137263389,Professional,2.0.10.353,2.0.10.353,10/10/2017,10/10/2017 17:41,18:41:49,2.0.10.248,1,1,1,1,CM1,List1,3,NULL,NULL,NULL,3,1,3,b1,BlockList4,81,NULL,NULL,NULL,38,2,81,NULL,NULL,NULL,NULL,NULL,NULL,e,w,TrialProc,CM1Trails,blue,red,e,w,1,e,245,1,w,358
DualSimon(I),3004,1,"<?xml version=""1.0""?>\n<Clock xmlns:dt=""urn:schemas-microsoft-com:datatypes""><Description dt:dt=""string"">E-Prime Primary Realtime Clock</Description><StartTime><Timestamp dt:dt=""int"">0</Timestamp><DateUtc dt:dt=""string"">2017-10-10T17:41:49Z</DateUtc></StartTime><FrequencyChanges><FrequencyChange><Frequency dt:dt=""r8"">2923154</Frequency><Timestamp dt:dt=""r8"">325279697359</Timestamp><Current dt:dt=""r8"">0</Current><DateUtc dt:dt=""string"">2017-10-10T17:41:49Z</DateUtc></FrequencyChange></FrequencyChanges></Clock>\n",DualSimon(I)-003004-1,59.955,59.955,1.0.0.520,1,-1137263389,Professional,2.0.10.353,2.0.10.353,10/10/2017,10/10/2017 17:41,18:41:49,2.0.10.248,1,1,1,1,CM1,List1,3,NULL,NULL,NULL,3,1,3,b1,BlockList4,82,NULL,NULL,NULL,62,2,82,NULL,NULL,NULL,NULL,NULL,NULL,e,e,TrialProc,CM1Trails,blue,blue,w,w,1,e,364,1,e,322
DualSimon(I),3004,1,"<?xml version=""1.0""?>\n<Clock xmlns:dt=""urn:schemas-microsoft-com:datatypes""><Description dt:dt=""string"">E-Prime Primary Realtime Clock</Description><StartTime><Timestamp dt:dt=""int"">0</Timestamp><DateUtc dt:dt=""string"">2017-10-10T17:41:49Z</DateUtc></StartTime><FrequencyChanges><FrequencyChange><Frequency dt:dt=""r8"">2923154</Frequency><Timestamp dt:dt=""r8"">325279697359</Timestamp><Current dt:dt=""r8"">0</Current><DateUtc dt:dt=""string"">2017-10-10T17:41:49Z</DateUtc></FrequencyChange></FrequencyChanges></Clock>\n",DualSimon(I)-003004-1,59.955,59.955,1.0.0.520,1,-1137263389,Professional,2.0.10.353,2.0.10.353,10/10/2017,10/10/2017 17:41,18:41:49,2.0.10.248,1,1,1,1,CM1,List1,3,NULL,NULL,NULL,3,1,3,b1,BlockList4,83,NULL,NULL,NULL,60,2,83,NULL,NULL,NULL,NULL,NULL,NULL,e,e,TrialProc,CM1Trails,blue,blue,w,w,1,e,289,1,e,493
DualSimon(I),3004,1,"<?xml version=""1.0""?>\n<Clock xmlns:dt=""urn:schemas-microsoft-com:datatypes""><Description dt:dt=""string"">E-Prime Primary Realtime Clock</Description><StartTime><Timestamp dt:dt=""int"">0</Timestamp><DateUtc dt:dt=""string"">2017-10-10T17:41:49Z</DateUtc></StartTime><FrequencyChanges><FrequencyChange><Frequency dt:dt=""r8"">2923154</Frequency><Timestamp dt:dt=""r8"">325279697359</Timestamp><Current dt:dt=""r8"">0</Current><DateUtc dt:dt=""string"">2017-10-10T17:41:49Z</DateUtc></FrequencyChange></FrequencyChanges></Clock>\n",DualSimon(I)-003004-1,59.955,59.955,1.0.0.520,1,-1137263389,Professional,2.0.10.353,2.0.10.353,10/10/2017,10/10/2017 17:41,18:41:49,2.0.10.248,1,1,1,1,CM1,List1,3,NULL,NULL,NULL,3,1,3,b1,BlockList4,84,NULL,NULL,NULL,77,2,84,NULL,NULL,NULL,NULL,NULL,NULL,e,w,TrialProc,CM1Trails,blue,red,w,e,1,e,258,1,w,375
DualSimon(I),3004,1,"<?xml version=""1.0""?>\n<Clock xmlns:dt=""urn:schemas-microsoft-com:datatypes""><Description dt:dt=""string"">E-Prime Primary Realtime Clock</Description><StartTime><Timestamp dt:dt=""int"">0</Timestamp><DateUtc dt:dt=""string"">2017-10-10T17:41:49Z</DateUtc></StartTime><FrequencyChanges><FrequencyChange><Frequency dt:dt=""r8"">2923154</Frequency><Timestamp dt:dt=""r8"">325279697359</Timestamp><Current dt:dt=""r8"">0</Current><DateUtc dt:dt=""string"">2017-10-10T17:41:49Z</DateUtc></FrequencyChange></FrequencyChanges></Clock>\n",DualSimon(I)-003004-1,59.955,59.955,1.0.0.520,1,-1137263389,Professional,2.0.10.353,2.0.10.353,10/10/2017,10/10/2017 17:41,18:41:49,2.0.10.248,1,1,1,1,CM1,List1,3,NULL,NULL,NULL,3,1,3,b1,BlockList4,85,NULL,NULL,NULL,93,2,85,NULL,NULL,NULL,NULL,NULL,NULL,w,e,TrialProc,CM1Trails,red,blue,e,w,1,w,430,1,e,328
DualSimon(I),3004,1,"<?xml version=""1.0""?>\n<Clock xmlns:dt=""urn:schemas-microsoft-com:datatypes""><Description dt:dt=""string"">E-Prime Primary Realtime Clock</Description><StartTime><Timestamp dt:dt=""int"">0</Timestamp><DateUtc dt:dt=""string"">2017-10-10T17:41:49Z</DateUtc></StartTime><FrequencyChanges><FrequencyChange><Frequency dt:dt=""r8"">2923154</Frequency><Timestamp dt:dt=""r8"">325279697359</Timestamp><Current dt:dt=""r8"">0</Current><DateUtc dt:dt=""string"">2017-10-10T17:41:49Z</DateUtc></FrequencyChange></FrequencyChanges></Clock>\n",DualSimon(I)-003004-1,59.955,59.955,1.0.0.520,1,-1137263389,Professional,2.0.10.353,2.0.10.353,10/10/2017,10/10/2017 17:41,18:41:49,2.0.10.248,1,1,1,1,CM1,List1,3,NULL,NULL,NULL,3,1,3,b1,BlockList4,86,NULL,NULL,NULL,1,2,86,NULL,NULL,NULL,NULL,NULL,NULL,e,e,TrialProc,CM1Trails,blue,blue,e,e,1,e,419,1,e,338
DualSimon(I),3004,1,"<?xml version=""1.0""?>\n<Clock xmlns:dt=""urn:schemas-microsoft-com:datatypes""><Description dt:dt=""string"">E-Prime Primary Realtime Clock</Description><StartTime><Timestamp dt:dt=""int"">0</Timestamp><DateUtc dt:dt=""string"">2017-10-10T17:41:49Z</DateUtc></StartTime><FrequencyChanges><FrequencyChange><Frequency dt:dt=""r8"">2923154</Frequency><Timestamp dt:dt=""r8"">325279697359</Timestamp><Current dt:dt=""r8"">0</Current><DateUtc dt:dt=""string"">2017-10-10T17:41:49Z</DateUtc></FrequencyChange></FrequencyChanges></Clock>\n",DualSimon(I)-003004-1,59.955,59.955,1.0.0.520,1,-1137263389,Professional,2.0.10.353,2.0.10.353,10/10/2017,10/10/2017 17:41,18:41:49,2.0.10.248,1,1,1,1,CM1,List1,3,NULL,NULL,NULL,3,1,3,b1,BlockList4,87,NULL,NULL,NULL,46,2,87,NULL,NULL,NULL,NULL,NULL,NULL,w,e,TrialProc,CM1Trails,red,blue,w,e,1,w,294,1,e,327
DualSimon(I),3004,1,"<?xml version=""1.0""?>\n<Clock xmlns:dt=""urn:schemas-microsoft-com:datatypes""><Description dt:dt=""string"">E-Prime Primary Realtime Clock</Description><StartTime><Timestamp dt:dt=""int"">0</Timestamp><DateUtc dt:dt=""string"">2017-10-10T17:41:49Z</DateUtc></StartTime><FrequencyChanges><FrequencyChange><Frequency dt:dt=""r8"">2923154</Frequency><Timestamp dt:dt=""r8"">325279697359</Timestamp><Current dt:dt=""r8"">0</Current><DateUtc dt:dt=""string"">2017-10-10T17:41:49Z</DateUtc></FrequencyChange></FrequencyChanges></Clock>\n",DualSimon(I)-003004-1,59.955,59.955,1.0.0.520,1,-1137263389,Professional,2.0.10.353,2.0.10.353,10/10/2017,10/10/2017 17:41,18:41:49,2.0.10.248,1,1,1,1,CM1,List1,3,NULL,NULL,NULL,3,1,3,b1,BlockList4,88,NULL,NULL,NULL,39,2,88,NULL,NULL,NULL,NULL,NULL,NULL,e,w,TrialProc,CM1Trails,blue,red,e,w,1,e,280,1,w,240
DualSimon(I),3004,1,"<?xml version=""1.0""?>\n<Clock xmlns:dt=""urn:schemas-microsoft-com:datatypes""><Description dt:dt=""string"">E-Prime Primary Realtime Clock</Description><StartTime><Timestamp dt:dt=""int"">0</Timestamp><DateUtc dt:dt=""string"">2017-10-10T17:41:49Z</DateUtc></StartTime><FrequencyChanges><FrequencyChange><Frequency dt:dt=""r8"">2923154</Frequency><Timestamp dt:dt=""r8"">325279697359</Timestamp><Current dt:dt=""r8"">0</Current><DateUtc dt:dt=""string"">2017-10-10T17:41:49Z</DateUtc></FrequencyChange></FrequencyChanges></Clock>\n",DualSimon(I)-003004-1,59.955,59.955,1.0.0.520,1,-1137263389,Professional,2.0.10.353,2.0.10.353,10/10/2017,10/10/2017 17:41,18:41:49,2.0.10.248,1,1,1,1,CM1,List1,3,NULL,NULL,NULL,3,1,3,b1,BlockList4,89,NULL,NULL,NULL,84,2,89,NULL,NULL,NULL,NULL,NULL,NULL,e,w,TrialProc,CM1Trails,blue,red,w,e,1,e,434,0,e,237
DualSimon(I),3004,1,"<?xml version=""1.0""?>\n<Clock xmlns:dt=""urn:schemas-microsoft-com:datatypes""><Description dt:dt=""string"">E-Prime Primary Realtime Clock</Description><StartTime><Timestamp dt:dt=""int"">0</Timestamp><DateUtc dt:dt=""string"">2017-10-10T17:41:49Z</DateUtc></StartTime><FrequencyChanges><FrequencyChange><Frequency dt:dt=""r8"">2923154</Frequency><Timestamp dt:dt=""r8"">325279697359</Timestamp><Current dt:dt=""r8"">0</Current><DateUtc dt:dt=""string"">2017-10-10T17:41:49Z</DateUtc></FrequencyChange></FrequencyChanges></Clock>\n",DualSimon(I)-003004-1,59.955,59.955,1.0.0.520,1,-1137263389,Professional,2.0.10.353,2.0.10.353,10/10/2017,10/10/2017 17:41,18:41:49,2.0.10.248,1,1,1,1,CM1,List1,3,NULL,NULL,NULL,3,1,3,b1,BlockList4,90,NULL,NULL,NULL,23,2,90,NULL,NULL,NULL,NULL,NULL,NULL,w,w,TrialProc,CM1Trails,red,red,w,w,1,w,272,1,w,420
DualSimon(I),3004,1,"<?xml version=""1.0""?>\n<Clock xmlns:dt=""urn:schemas-microsoft-com:datatypes""><Description dt:dt=""string"">E-Prime Primary Realtime Clock</Description><StartTime><Timestamp dt:dt=""int"">0</Timestamp><DateUtc dt:dt=""string"">2017-10-10T17:41:49Z</DateUtc></StartTime><FrequencyChanges><FrequencyChange><Frequency dt:dt=""r8"">2923154</Frequency><Timestamp dt:dt=""r8"">325279697359</Timestamp><Current dt:dt=""r8"">0</Current><DateUtc dt:dt=""string"">2017-10-10T17:41:49Z</DateUtc></FrequencyChange></FrequencyChanges></Clock>\n",DualSimon(I)-003004-1,59.955,59.955,1.0.0.520,1,-1137263389,Professional,2.0.10.353,2.0.10.353,10/10/2017,10/10/2017 17:41,18:41:49,2.0.10.248,1,1,1,1,CM1,List1,3,NULL,NULL,NULL,3,1,3,b1,BlockList4,91,NULL,NULL,NULL,2,2,91,NULL,NULL,NULL,NULL,NULL,NULL,w,w,TrialProc,CM1Trails,red,red,w,w,1,w,302,1,w,300
DualSimon(I),3004,1,"<?xml version=""1.0""?>\n<Clock xmlns:dt=""urn:schemas-microsoft-com:datatypes""><Description dt:dt=""string"">E-Prime Primary Realtime Clock</Description><StartTime><Timestamp dt:dt=""int"">0</Timestamp><DateUtc dt:dt=""string"">2017-10-10T17:41:49Z</DateUtc></StartTime><FrequencyChanges><FrequencyChange><Frequency dt:dt=""r8"">2923154</Frequency><Timestamp dt:dt=""r8"">325279697359</Timestamp><Current dt:dt=""r8"">0</Current><DateUtc dt:dt=""string"">2017-10-10T17:41:49Z</DateUtc></FrequencyChange></FrequencyChanges></Clock>\n",DualSimon(I)-003004-1,59.955,59.955,1.0.0.520,1,-1137263389,Professional,2.0.10.353,2.0.10.353,10/10/2017,10/10/2017 17:41,18:41:49,2.0.10.248,1,1,1,1,CM1,List1,3,NULL,NULL,NULL,3,1,3,b1,BlockList4,92,NULL,NULL,NULL,49,2,92,NULL,NULL,NULL,NULL,NULL,NULL,w,e,TrialProc,CM1Trails,red,blue,w,e,1,w,353,1,e,180
DualSimon(I),3004,1,"<?xml version=""1.0""?>\n<Clock xmlns:dt=""urn:schemas-microsoft-com:datatypes""><Description dt:dt=""string"">E-Prime Primary Realtime Clock</Description><StartTime><Timestamp dt:dt=""int"">0</Timestamp><DateUtc dt:dt=""string"">2017-10-10T17:41:49Z</DateUtc></StartTime><FrequencyChanges><FrequencyChange><Frequency dt:dt=""r8"">2923154</Frequency><Timestamp dt:dt=""r8"">325279697359</Timestamp><Current dt:dt=""r8"">0</Current><DateUtc dt:dt=""string"">2017-10-10T17:41:49Z</DateUtc></FrequencyChange></FrequencyChanges></Clock>\n",DualSimon(I)-003004-1,59.955,59.955,1.0.0.520,1,-1137263389,Professional,2.0.10.353,2.0.10.353,10/10/2017,10/10/2017 17:41,18:41:49,2.0.10.248,1,1,1,1,CM1,List1,3,NULL,NULL,NULL,3,1,3,b1,BlockList4,93,NULL,NULL,NULL,90,2,93,NULL,NULL,NULL,NULL,NULL,NULL,w,e,TrialProc,CM1Trails,red,blue,e,w,1,w,376,0,w,248
DualSimon(I),3004,1,"<?xml version=""1.0""?>\n<Clock xmlns:dt=""urn:schemas-microsoft-com:datatypes""><Description dt:dt=""string"">E-Prime Primary Realtime Clock</Description><StartTime><Timestamp dt:dt=""int"">0</Timestamp><DateUtc dt:dt=""string"">2017-10-10T17:41:49Z</DateUtc></StartTime><FrequencyChanges><FrequencyChange><Frequency dt:dt=""r8"">2923154</Frequency><Timestamp dt:dt=""r8"">325279697359</Timestamp><Current dt:dt=""r8"">0</Current><DateUtc dt:dt=""string"">2017-10-10T17:41:49Z</DateUtc></FrequencyChange></FrequencyChanges></Clock>\n",DualSimon(I)-003004-1,59.955,59.955,1.0.0.520,1,-1137263389,Professional,2.0.10.353,2.0.10.353,10/10/2017,10/10/2017 17:41,18:41:49,2.0.10.248,1,1,1,1,CM1,List1,3,NULL,NULL,NULL,3,1,3,b1,BlockList4,94,NULL,NULL,NULL,29,2,94,NULL,NULL,NULL,NULL,NULL,NULL,w,w,TrialProc,CM1Trails,red,red,w,w,1,w,383,1,w,338
DualSimon(I),3004,1,"<?xml version=""1.0""?>\n<Clock xmlns:dt=""urn:schemas-microsoft-com:datatypes""><Description dt:dt=""string"">E-Prime Primary Realtime Clock</Description><StartTime><Timestamp dt:dt=""int"">0</Timestamp><DateUtc dt:dt=""string"">2017-10-10T17:41:49Z</DateUtc></StartTime><FrequencyChanges><FrequencyChange><Frequency dt:dt=""r8"">2923154</Frequency><Timestamp dt:dt=""r8"">325279697359</Timestamp><Current dt:dt=""r8"">0</Current><DateUtc dt:dt=""string"">2017-10-10T17:41:49Z</DateUtc></FrequencyChange></FrequencyChanges></Clock>\n",DualSimon(I)-003004-1,59.955,59.955,1.0.0.520,1,-1137263389,Professional,2.0.10.353,2.0.10.353,10/10/2017,10/10/2017 17:41,18:41:49,2.0.10.248,1,1,1,1,CM1,List1,3,NULL,NULL,NULL,3,1,3,b1,BlockList4,95,NULL,NULL,NULL,9,2,95,NULL,NULL,NULL,NULL,NULL,NULL,e,e,TrialProc,CM1Trails,blue,blue,e,e,1,e,288,1,e,264
DualSimon(I),3004,1,"<?xml version=""1.0""?>\n<Clock xmlns:dt=""urn:schemas-microsoft-com:datatypes""><Description dt:dt=""string"">E-Prime Primary Realtime Clock</Description><StartTime><Timestamp dt:dt=""int"">0</Timestamp><DateUtc dt:dt=""string"">2017-10-10T17:41:49Z</DateUtc></StartTime><FrequencyChanges><FrequencyChange><Frequency dt:dt=""r8"">2923154</Frequency><Timestamp dt:dt=""r8"">325279697359</Timestamp><Current dt:dt=""r8"">0</Current><DateUtc dt:dt=""string"">2017-10-10T17:41:49Z</DateUtc></FrequencyChange></FrequencyChanges></Clock>\n",DualSimon(I)-003004-1,59.955,59.955,1.0.0.520,1,-1137263389,Professional,2.0.10.353,2.0.10.353,10/10/2017,10/10/2017 17:41,18:41:49,2.0.10.248,1,1,1,1,CM1,List1,3,NULL,NULL,NULL,3,1,3,b1,BlockList4,96,NULL,NULL,NULL,44,2,96,NULL,NULL,NULL,NULL,NULL,NULL,w,e,TrialProc,CM1Trails,red,blue,w,e,1,w,243,1,e,306
DualSimon(I),3004,1,"<?xml version=""1.0""?>\n<Clock xmlns:dt=""urn:schemas-microsoft-com:datatypes""><Description dt:dt=""string"">E-Prime Primary Realtime Clock</Description><StartTime><Timestamp dt:dt=""int"">0</Timestamp><DateUtc dt:dt=""string"">2017-10-10T17:41:49Z</DateUtc></StartTime><FrequencyChanges><FrequencyChange><Frequency dt:dt=""r8"">2923154</Frequency><Timestamp dt:dt=""r8"">325279697359</Timestamp><Current dt:dt=""r8"">0</Current><DateUtc dt:dt=""string"">2017-10-10T17:41:49Z</DateUtc></FrequencyChange></FrequencyChanges></Clock>\n",DualSimon(I)-003004-1,59.955,59.955,1.0.0.520,1,-1137263389,Professional,2.0.10.353,2.0.10.353,10/10/2017,10/10/2017 17:41,18:41:49,2.0.10.248,2,2,1,2,CM2,List1,1,1,1,1,NULL,NULL,NULL,CM2PracTrial,BlockList2,1,NULL,NULL,NULL,NULL,NULL,NULL,15,2,1,NULL,NULL,NULL,w,w,TrialProc7,CM2PracTrials,blue,blue,w,w,1,w,445,1,w,330
