ExperimentName,Subject,Session,Clock.Information,DataFile.Basename,Display1.RefreshRate,Display2.RefreshRate,ExperimentVersion,Group,RandomSeed,RuntimeCapabilities,RuntimeVersion,RuntimeVersionExpected,SessionDate,SessionStartDateTimeUtc,SessionTime,StudioVersion,Block,List1,List1.Cycle,List1.Sample,Procedure[Block],Running[Block],Trial,BlockList2,BlockList2.Cycle,BlockList2.Sample,BlockList4,BlockList4.Cycle,BlockList4.Sample,Procedure[Trial],Running[Trial],SubTrial,CM1PracTrails1,CM1PracTrails1.Cycle,CM1PracTrails1.Sample,CM1Trails,CM1Trails.Cycle,CM1Trails.Sample,CM2PracTrials,CM2PracTrials.Cycle,CM2PracTrials.Sample,CM2Trials,CM2Trials.Cycle,CM2Trials.Sample,CorrectSubj1,CorrectSubj2,Procedure[SubTrial],Running[SubTrial],Screen1_Obj_Colour,Screen2_Obj_Colour,Screen_1_Obj_Pos,Screen_2_Obj_Pos,Subject1ACC,Subject1RESP,Subject1RT,Subject2ACC,Subject2RESP,Subject2RT
DualSimon(I),5006,1,"<?xml version=""1.0""?>\n<Clock xmlns:dt=""urn:schemas-microsoft-com:datatypes""><Description dt:dt=""string"">E-Prime Primary Realtime Clock</Description><StartTime><Timestamp dt:dt=""int"">0</Timestamp><DateUtc dt:dt=""string"">2017-10-12T11:24:13Z</DateUtc></StartTime><FrequencyChanges><FrequencyChange><Frequency dt:dt=""r8"">2923154</Frequency><Timestamp dt:dt=""r8"">764139327347</Timestamp><Current dt:dt=""r8"">0</Current><DateUtc dt:dt=""string"">2017-10-12T11:24:13Z</DateUtc></FrequencyChange></FrequencyChanges></Clock>\n",DualSimon(I)-005006-1,59.955,59.955,1.0.0.528,1,-364266468,Professional,2.0.10.353,2.0.10.353,10/12/2017,12/10/2017 11:24,12:24:13,2.0.10.248,1,1,1,1,CM1,List1,1,NULL,NULL,NULL,1,1,1,CM1Prac,BlockList4,1,15,2,1,NULL,NULL,NULL,NULL,NULL,NULL,NULL,NULL,NULL,e,w,TrialProc2,CM1PracTrails1,blue,red,w,e,1,e,423,1,w,491
DualSimon(I),5006,1,"<?xml version=""1.0""?>\n<Clock xmlns:dt=""urn:schemas-microsoft-com:datatypes""><Description dt:dt=""string"">E-Prime Primary Realtime Clock</Description><StartTime><Timestamp dt:dt=""int"">0</Timestamp><DateUtc dt:dt=""string"">2017-10-12T11:24:13Z</DateUtc></StartTime><FrequencyChanges><FrequencyChange><Frequency dt:dt=""r8"">2923154</Frequency><Timestamp dt:dt=""r8"">764139327347</Timestamp><Current dt:dt=""r8"">0</Current><DateUtc dt:dt=""string"">2017-10-12T11:24:13Z</DateUtc></FrequencyChange></FrequencyChanges></Clock>\n",DualSimon(I)-005006-1,59.955,59.955,1.0.0.528,1,-364266468,Professional,2.0.10.353,2.0.10.353,10/12/2017,12/10/2017 11:24,12:24:13,2.0.10.248,1,1,1,1,CM1,List1,1,NULL,NULL,NULL,1,1,1,CM1Prac,BlockList4,2,13,2,2,NULL,NULL,NULL,NULL,NULL,NULL,NULL,NULL,NULL,e,e,TrialProc2,CM1PracTrails1,blue,blue,w,w,1,e,435,1,e,527
DualSimon(I),5006,1,"<?xml version=""1.0""?>\n<Clock xmlns:dt=""urn:schemas-microsoft-com:datatypes""><Description dt:dt=""string"">E-Prime Primary Realtime Clock</Description><StartTime><Timestamp dt:dt=""int"">0</Timestamp><DateUtc dt:dt=""string"">2017-10-12T11:24:13Z</DateUtc></StartTime><FrequencyChanges><FrequencyChange><Frequency dt:dt=""r8"">2923154</Frequency><Timestamp dt:dt=""r8"">764139327347</Timestamp><Current dt:dt=""r8"">0</Current><DateUtc dt:dt=""string"">2017-10-12T11:24:13Z</DateUtc></FrequencyChange></FrequencyChanges></Clock>\n",DualSimon(I)-005006-1,59.955,59.955,1.0.0.528,1,-364266468,Professional,2.0.10.353,2.0.10.353,10/12/2017,12/10/2017 11:24,12:24:13,2.0.10.248,1,1,1,1,CM1,List1,1,NULL,NULL,NULL,1,1,1,CM1Prac,BlockList4,3,14,2,3,NULL,NULL,NULL,NULL,NULL,NULL,NULL,NULL,NULL,w,w,TrialProc2,CM1PracTrails1,red,red,e,e,1,w,377,1,w,287
DualSimon(I),5006,1,"<?xml version=""1.0""?>\n<Clock xmlns:dt=""urn:schemas-microsoft-com:datatypes""><Description dt:dt=""string"">E-Prime Primary Realtime Clock</Description><StartTime><Timestamp dt:dt=""int"">0</Timestamp><DateUtc dt:dt=""string"">2017-10-12T11:24:13Z</DateUtc></StartTime><FrequencyChanges><FrequencyChange><Frequency dt:dt=""r8"">2923154</Frequency><Timestamp dt:dt=""r8"">764139327347</Timestamp><Current dt:dt=""r8"">0</Current><DateUtc dt:dt=""string"">2017-10-12T11:24:13Z</DateUtc></FrequencyChange></FrequencyChanges></Clock>\n",DualSimon(I)-005006-1,59.955,59.955,1.0.0.528,1,-364266468,Professional,2.0.10.353,2.0.10.353,10/12/2017,12/10/2017 11:24,12:24:13,2.0.10.248,1,1,1,1,CM1,List1,1,NULL,NULL,NULL,1,1,1,CM1Prac,BlockList4,4,8,2,4,NULL,NULL,NULL,NULL,NULL,NULL,NULL,NULL,NULL,w,e,TrialProc2,CM1PracTrails1,red,blue,e,w,1,w,458,1,e,492
DualSimon(I),5006,1,"<?xml version=""1.0""?>\n<Clock xmlns:dt=""urn:schemas-microsoft-com:datatypes""><Description dt:dt=""string"">E-Prime Primary Realtime Clock</Description><StartTime><Timestamp dt:dt=""int"">0</Timestamp><DateUtc dt:dt=""string"">2017-10-12T11:24:13Z</DateUtc></StartTime><FrequencyChanges><FrequencyChange><Frequency dt:dt=""r8"">2923154</Frequency><Timestamp dt:dt=""r8"">764139327347</Timestamp><Current dt:dt=""r8"">0</Current><DateUtc dt:dt=""string"">2017-10-12T11:24:13Z</DateUtc></FrequencyChange></FrequencyChanges></Clock>\n",DualSimon(I)-005006-1,59.955,59.955,1.0.0.528,1,-364266468,Professional,2.0.10.353,2.0.10.353,10/12/2017,12/10/2017 11:24,12:24:13,2.0.10.248,1,1,1,1,CM1,List1,1,NULL,NULL,NULL,1,1,1,CM1Prac,BlockList4,5,16,2,5,NULL,NULL,NULL,NULL,NULL,NULL,NULL,NULL,NULL,w,e,TrialProc2,CM1PracTrails1,red,blue,e,w,1,w,400,1,e,380
DualSimon(I),5006,1,"<?xml version=""1.0""?>\n<Clock xmlns:dt=""urn:schemas-microsoft-com:datatypes""><Description dt:dt=""string"">E-Prime Primary Realtime Clock</Description><StartTime><Timestamp dt:dt=""int"">0</Timestamp><DateUtc dt:dt=""string"">2017-10-12T11:24:13Z</DateUtc></StartTime><FrequencyChanges><FrequencyChange><Frequency dt:dt=""r8"">2923154</Frequency><Timestamp dt:dt=""r8"">764139327347</Timestamp><Current dt:dt=""r8"">0</Current><DateUtc dt:dt=""string"">2017-10-12T11:24:13Z</DateUtc></FrequencyChange></FrequencyChanges></Clock>\n",DualSimon(I)-005006-1,59.955,59.955,1.0.0.528,1,-364266468,Professional,2.0.10.353,2.0.10.353,10/12/2017,12/10/2017 11:24,12:24:13,2.0.10.248,1,1,1,1,CM1,List1,1,NULL,NULL,NULL,1,1,1,CM1Prac,BlockList4,6,11,2,6,NULL,NULL,NULL,NULL,NULL,NULL,NULL,NULL,NULL,e,w,TrialProc2,CM1PracTrails1,blue,red,e,w,1,e,255,1,w,397
DualSimon(I),5006,1,"<?xml version=""1.0""?>\n<Clock xmlns:dt=""urn:schemas-microsoft-com:datatypes""><Description dt:dt=""string"">E-Prime Primary Realtime Clock</Description><StartTime><Timestamp dt:dt=""int"">0</Timestamp><DateUtc dt:dt=""string"">2017-10-12T11:24:13Z</DateUtc></StartTime><FrequencyChanges><FrequencyChange><Frequency dt:dt=""r8"">2923154</Frequency><Timestamp dt:dt=""r8"">764139327347</Timestamp><Current dt:dt=""r8"">0</Current><DateUtc dt:dt=""string"">2017-10-12T11:24:13Z</DateUtc></FrequencyChange></FrequencyChanges></Clock>\n",DualSimon(I)-005006-1,59.955,59.955,1.0.0.528,1,-364266468,Professional,2.0.10.353,2.0.10.353,10/12/2017,12/10/2017 11:24,12:24:13,2.0.10.248,1,1,1,1,CM1,List1,1,NULL,NULL,NULL,1,1,1,CM1Prac,BlockList4,7,3,2,7,NULL,NULL,NULL,NULL,NULL,NULL,NULL,NULL,NULL,e,w,TrialProc2,CM1PracTrails1,blue,red,e,w,0,w,439,1,w,305
DualSimon(I),5006,1,"<?xml version=""1.0""?>\n<Clock xmlns:dt=""urn:schemas-microsoft-com:datatypes""><Description dt:dt=""string"">E-Prime Primary Realtime Clock</Description><StartTime><Timestamp dt:dt=""int"">0</Timestamp><DateUtc dt:dt=""string"">2017-10-12T11:24:13Z</DateUtc></StartTime><FrequencyChanges><FrequencyChange><Frequency dt:dt=""r8"">2923154</Frequency><Timestamp dt:dt=""r8"">764139327347</Timestamp><Current dt:dt=""r8"">0</Current><DateUtc dt:dt=""string"">2017-10-12T11:24:13Z</DateUtc></FrequencyChange></FrequencyChanges></Clock>\n",DualSimon(I)-005006-1,59.955,59.955,1.0.0.528,1,-364266468,Professional,2.0.10.353,2.0.10.353,10/12/2017,12/10/2017 11:24,12:24:13,2.0.10.248,1,1,1,1,CM1,List1,1,NULL,NULL,NULL,1,1,1,CM1Prac,BlockList4,8,2,2,8,NULL,NULL,NULL,NULL,NULL,NULL,NULL,NULL,NULL,w,w,TrialProc2,CM1PracTrails1,red,red,w,w,1,w,642,1,w,350
DualSimon(I),5006,1,"<?xml version=""1.0""?>\n<Clock xmlns:dt=""urn:schemas-microsoft-com:datatypes""><Description dt:dt=""string"">E-Prime Primary Realtime Clock</Description><StartTime><Timestamp dt:dt=""int"">0</Timestamp><DateUtc dt:dt=""string"">2017-10-12T11:24:13Z</DateUtc></StartTime><FrequencyChanges><FrequencyChange><Frequency dt:dt=""r8"">2923154</Frequency><Timestamp dt:dt=""r8"">764139327347</Timestamp><Current dt:dt=""r8"">0</Current><DateUtc dt:dt=""string"">2017-10-12T11:24:13Z</DateUtc></FrequencyChange></FrequencyChanges></Clock>\n",DualSimon(I)-005006-1,59.955,59.955,1.0.0.528,1,-364266468,Professional,2.0.10.353,2.0.10.353,10/12/2017,12/10/2017 11:24,12:24:13,2.0.10.248,1,1,1,1,CM1,List1,1,NULL,NULL,NULL,1,1,1,CM1Prac,BlockList4,9,9,2,9,NULL,NULL,NULL,NULL,NULL,NULL,NULL,NULL,NULL,e,e,TrialProc2,CM1PracTrails1,blue,blue,e,e,1,e,592,1,e,524
DualSimon(I),5006,1,"<?xml version=""1.0""?>\n<Clock xmlns:dt=""urn:schemas-microsoft-com:datatypes""><Description dt:dt=""string"">E-Prime Primary Realtime Clock</Description><StartTime><Timestamp dt:dt=""int"">0</Timestamp><DateUtc dt:dt=""string"">2017-10-12T11:24:13Z</DateUtc></StartTime><FrequencyChanges><FrequencyChange><Frequency dt:dt=""r8"">2923154</Frequency><Timestamp dt:dt=""r8"">764139327347</Timestamp><Current dt:dt=""r8"">0</Current><DateUtc dt:dt=""string"">2017-10-12T11:24:13Z</DateUtc></FrequencyChange></FrequencyChanges></Clock>\n",DualSimon(I)-005006-1,59.955,59.955,1.0.0.528,1,-364266468,Professional,2.0.10.353,2.0.10.353,10/12/2017,12/10/2017 11:24,12:24:13,2.0.10.248,1,1,1,1,CM1,List1,1,NULL,NULL,NULL,1,1,1,CM1Prac,BlockList4,10,6,2,10,NULL,NULL,NULL,NULL,NULL,NULL,NULL,NULL,NULL,w,w,TrialProc2,CM1PracTrails1,red,red,e,e,1,w,406,1,w,466
DualSimon(I),5006,1,"<?xml version=""1.0""?>\n<Clock xmlns:dt=""urn:schemas-microsoft-com:datatypes""><Description dt:dt=""string"">E-Prime Primary Realtime Clock</Description><StartTime><Timestamp dt:dt=""int"">0</Timestamp><DateUtc dt:dt=""string"">2017-10-12T11:24:13Z</DateUtc></StartTime><FrequencyChanges><FrequencyChange><Frequency dt:dt=""r8"">2923154</Frequency><Timestamp dt:dt=""r8"">764139327347</Timestamp><Current dt:dt=""r8"">0</Current><DateUtc dt:dt=""string"">2017-10-12T11:24:13Z</DateUtc></FrequencyChange></FrequencyChanges></Clock>\n",DualSimon(I)-005006-1,59.955,59.955,1.0.0.528,1,-364266468,Professional,2.0.10.353,2.0.10.353,10/12/2017,12/10/2017 11:24,12:24:13,2.0.10.248,1,1,1,1,CM1,List1,1,NULL,NULL,NULL,1,1,1,CM1Prac,BlockList4,11,7,2,11,NULL,NULL,NULL,NULL,NULL,NULL,NULL,NULL,NULL,e,w,TrialProc2,CM1PracTrails1,blue,red,w,e,1,e,363,1,w,409
DualSimon(I),5006,1,"<?xml version=""1.0""?>\n<Clock xmlns:dt=""urn:schemas-microsoft-com:datatypes""><Description dt:dt=""string"">E-Prime Primary Realtime Clock</Description><StartTime><Timestamp dt:dt=""int"">0</Timestamp><DateUtc dt:dt=""string"">2017-10-12T11:24:13Z</DateUtc></StartTime><FrequencyChanges><FrequencyChange><Frequency dt:dt=""r8"">2923154</Frequency><Timestamp dt:dt=""r8"">764139327347</Timestamp><Current dt:dt=""r8"">0</Current><DateUtc dt:dt=""string"">2017-10-12T11:24:13Z</DateUtc></FrequencyChange></FrequencyChanges></Clock>\n",DualSimon(I)-005006-1,59.955,59.955,1.0.0.528,1,-364266468,Professional,2.0.10.353,2.0.10.353,10/12/2017,12/10/2017 11:24,12:24:13,2.0.10.248,1,1,1,1,CM1,List1,1,NULL,NULL,NULL,1,1,1,CM1Prac,BlockList4,12,5,2,12,NULL,NULL,NULL,NULL,NULL,NULL,NULL,NULL,NULL,e,e,TrialProc2,CM1PracTrails1,blue,blue,w,w,1,e,355,1,e,452
DualSimon(I),5006,1,"<?xml version=""1.0""?>\n<Clock xmlns:dt=""urn:schemas-microsoft-com:datatypes""><Description dt:dt=""string"">E-Prime Primary Realtime Clock</Description><StartTime><Timestamp dt:dt=""int"">0</Timestamp><DateUtc dt:dt=""string"">2017-10-12T11:24:13Z</DateUtc></StartTime><FrequencyChanges><FrequencyChange><Frequency dt:dt=""r8"">2923154</Frequency><Timestamp dt:dt=""r8"">764139327347</Timestamp><Current dt:dt=""r8"">0</Current><DateUtc dt:dt=""string"">2017-10-12T11:24:13Z</DateUtc></FrequencyChange></FrequencyChanges></Clock>\n",DualSimon(I)-005006-1,59.955,59.955,1.0.0.528,1,-364266468,Professional,2.0.10.353,2.0.10.353,10/12/2017,12/10/2017 11:24,12:24:13,2.0.10.248,1,1,1,1,CM1,List1,1,NULL,NULL,NULL,1,1,1,CM1Prac,BlockList4,13,1,2,13,NULL,NULL,NULL,NULL,NULL,NULL,NULL,NULL,NULL,e,e,TrialProc2,CM1PracTrails1,blue,blue,e,e,1,e,373,1,e,447
DualSimon(I),5006,1,"<?xml version=""1.0""?>\n<Clock xmlns:dt=""urn:schemas-microsoft-com:datatypes""><Description dt:dt=""string"">E-Prime Primary Realtime Clock</Description><StartTime><Timestamp dt:dt=""int"">0</Timestamp><DateUtc dt:dt=""string"">2017-10-12T11:24:13Z</DateUtc></StartTime><FrequencyChanges><FrequencyChange><Frequency dt:dt=""r8"">2923154</Frequency><Timestamp dt:dt=""r8"">764139327347</Timestamp><Current dt:dt=""r8"">0</Current><DateUtc dt:dt=""string"">2017-10-12T11:24:13Z</DateUtc></FrequencyChange></FrequencyChanges></Clock>\n",DualSimon(I)-005006-1,59.955,59.955,1.0.0.528,1,-364266468,Professional,2.0.10.353,2.0.10.353,10/12/2017,12/10/2017 11:24,12:24:13,2.0.10.248,1,1,1,1,CM1,List1,1,NULL,NULL,NULL,1,1,1,CM1Prac,BlockList4,14,4,2,14,NULL,NULL,NULL,NULL,NULL,NULL,NULL,NULL,NULL,w,e,TrialProc2,CM1PracTrails1,red,blue,w,e,1,w,319,1,e,430
DualSimon(I),5006,1,"<?xml version=""1.0""?>\n<Clock xmlns:dt=""urn:schemas-microsoft-com:datatypes""><Description dt:dt=""string"">E-Prime Primary Realtime Clock</Description><StartTime><Timestamp dt:dt=""int"">0</Timestamp><DateUtc dt:dt=""string"">2017-10-12T11:24:13Z</DateUtc></StartTime><FrequencyChanges><FrequencyChange><Frequency dt:dt=""r8"">2923154</Frequency><Timestamp dt:dt=""r8"">764139327347</Timestamp><Current dt:dt=""r8"">0</Current><DateUtc dt:dt=""string"">2017-10-12T11:24:13Z</DateUtc></FrequencyChange></FrequencyChanges></Clock>\n",DualSimon(I)-005006-1,59.955,59.955,1.0.0.528,1,-364266468,Professional,2.0.10.353,2.0.10.353,10/12/2017,12/10/2017 11:24,12:24:13,2.0.10.248,1,1,1,1,CM1,List1,1,NULL,NULL,NULL,1,1,1,CM1Prac,BlockList4,15,12,2,15,NULL,NULL,NULL,NULL,NULL,NULL,NULL,NULL,NULL,w,e,TrialProc2,CM1PracTrails1,red,blue,w,e,1,w,367,1,e,383
DualSimon(I),5006,1,"<?xml version=""1.0""?>\n<Clock xmlns:dt=""urn:schemas-microsoft-com:datatypes""><Description dt:dt=""string"">E-Prime Primary Realtime Clock</Description><StartTime><Timestamp dt:dt=""int"">0</Timestamp><DateUtc dt:dt=""string"">2017-10-12T11:24:13Z</DateUtc></StartTime><FrequencyChanges><FrequencyChange><Frequency dt:dt=""r8"">2923154</Frequency><Timestamp dt:dt=""r8"">764139327347</Timestamp><Current dt:dt=""r8"">0</Current><DateUtc dt:dt=""string"">2017-10-12T11:24:13Z</DateUtc></FrequencyChange></FrequencyChanges></Clock>\n",DualSimon(I)-005006-1,59.955,59.955,1.0.0.528,1,-364266468,Professional,2.0.10.353,2.0.10.353,10/12/2017,12/10/2017 11:24,12:24:13,2.0.10.248,1,1,1,1,CM1,List1,1,NULL,NULL,NULL,1,1,1,CM1Prac,BlockList4,16,10,2,16,NULL,NULL,NULL,NULL,NULL,NULL,NULL,NULL,NULL,w,w,TrialProc2,CM1PracTrails1,red,red,w,w,1,w,313,1,w,480
DualSimon(I),5006,1,"<?xml version=""1.0""?>\n<Clock xmlns:dt=""urn:schemas-microsoft-com:datatypes""><Description dt:dt=""string"">E-Prime Primary Realtime Clock</Description><StartTime><Timestamp dt:dt=""int"">0</Timestamp><DateUtc dt:dt=""string"">2017-10-12T11:24:13Z</DateUtc></StartTime><FrequencyChanges><FrequencyChange><Frequency dt:dt=""r8"">2923154</Frequency><Timestamp dt:dt=""r8"">764139327347</Timestamp><Current dt:dt=""r8"">0</Current><DateUtc dt:dt=""string"">2017-10-12T11:24:13Z</DateUtc></FrequencyChange></FrequencyChanges></Clock>\n",DualSimon(I)-005006-1,59.955,59.955,1.0.0.528,1,-364266468,Professional,2.0.10.353,2.0.10.353,10/12/2017,12/10/2017 11:24,12:24:13,2.0.10.248,1,1,1,1,CM1,List1,2,NULL,NULL,NULL,2,1,2,InstruProc,BlockList4,NULL,NULL,NULL,NULL,NULL,NULL,NULL,NULL,NULL,NULL,NULL,NULL,NULL,NULL,NULL,NULL,NULL,NULL,NULL,NULL,NULL,NULL,NULL,NULL,NULL,NULL,NULL
DualSimon(I),5006,1,"<?xml version=""1.0""?>\n<Clock xmlns:dt=""urn:schemas-microsoft-com:datatypes""><Description dt:dt=""string"">E-Prime Primary Realtime Clock</Description><StartTime><Timestamp dt:dt=""int"">0</Timestamp><DateUtc dt:dt=""string"">2017-10-12T11:24:13Z</DateUtc></StartTime><FrequencyChanges><FrequencyChange><Frequency dt:dt=""r8"">2923154</Frequency><Timestamp dt:dt=""r8"">764139327347</Timestamp><Current dt:dt=""r8"">0</Current><DateUtc dt:dt=""string"">2017-10-12T11:24:13Z</DateUtc></FrequencyChange></FrequencyChanges></Clock>\n",DualSimon(I)-005006-1,59.955,59.955,1.0.0.528,1,-364266468,Professional,2.0.10.353,2.0.10.353,10/12/2017,12/10/2017 11:24,12:24:13,2.0.10.248,1,1,1,1,CM1,List1,3,NULL,NULL,NULL,3,1,3,b1,BlockList4,1,NULL,NULL,NULL,28,2,1,NULL,NULL,NULL,NULL,NULL,NULL,w,w,TrialProc,CM1Trails,red,red,w,w,1,w,455,1,w,566
DualSimon(I),5006,1,"<?xml version=""1.0""?>\n<Clock xmlns:dt=""urn:schemas-microsoft-com:datatypes""><Description dt:dt=""string"">E-Prime Primary Realtime Clock</Description><StartTime><Timestamp dt:dt=""int"">0</Timestamp><DateUtc dt:dt=""string"">2017-10-12T11:24:13Z</DateUtc></StartTime><FrequencyChanges><FrequencyChange><Frequency dt:dt=""r8"">2923154</Frequency><Timestamp dt:dt=""r8"">764139327347</Timestamp><Current dt:dt=""r8"">0</Current><DateUtc dt:dt=""string"">2017-10-12T11:24:13Z</DateUtc></FrequencyChange></FrequencyChanges></Clock>\n",DualSimon(I)-005006-1,59.955,59.955,1.0.0.528,1,-364266468,Professional,2.0.10.353,2.0.10.353,10/12/2017,12/10/2017 11:24,12:24:13,2.0.10.248,1,1,1,1,CM1,List1,3,NULL,NULL,NULL,3,1,3,b1,BlockList4,2,NULL,NULL,NULL,10,2,2,NULL,NULL,NULL,NULL,NULL,NULL,e,e,TrialProc,CM1Trails,blue,blue,e,e,1,e,303,1,e,384
DualSimon(I),5006,1,"<?xml version=""1.0""?>\n<Clock xmlns:dt=""urn:schemas-microsoft-com:datatypes""><Description dt:dt=""string"">E-Prime Primary Realtime Clock</Description><StartTime><Timestamp dt:dt=""int"">0</Timestamp><DateUtc dt:dt=""string"">2017-10-12T11:24:13Z</DateUtc></StartTime><FrequencyChanges><FrequencyChange><Frequency dt:dt=""r8"">2923154</Frequency><Timestamp dt:dt=""r8"">764139327347</Timestamp><Current dt:dt=""r8"">0</Current><DateUtc dt:dt=""string"">2017-10-12T11:24:13Z</DateUtc></FrequencyChange></FrequencyChanges></Clock>\n",DualSimon(I)-005006-1,59.955,59.955,1.0.0.528,1,-364266468,Professional,2.0.10.353,2.0.10.353,10/12/2017,12/10/2017 11:24,12:24:13,2.0.10.248,1,1,1,1,CM1,List1,3,NULL,NULL,NULL,3,1,3,b1,BlockList4,3,NULL,NULL,NULL,23,2,3,NULL,NULL,NULL,NULL,NULL,NULL,w,w,TrialProc,CM1Trails,red,red,w,w,1,w,391,1,w,480
DualSimon(I),5006,1,"<?xml version=""1.0""?>\n<Clock xmlns:dt=""urn:schemas-microsoft-com:datatypes""><Description dt:dt=""string"">E-Prime Primary Realtime Clock</Description><StartTime><Timestamp dt:dt=""int"">0</Timestamp><DateUtc dt:dt=""string"">2017-10-12T11:24:13Z</DateUtc></StartTime><FrequencyChanges><FrequencyChange><Frequency dt:dt=""r8"">2923154</Frequency><Timestamp dt:dt=""r8"">764139327347</Timestamp><Current dt:dt=""r8"">0</Current><DateUtc dt:dt=""string"">2017-10-12T11:24:13Z</DateUtc></FrequencyChange></FrequencyChanges></Clock>\n",DualSimon(I)-005006-1,59.955,59.955,1.0.0.528,1,-364266468,Professional,2.0.10.353,2.0.10.353,10/12/2017,12/10/2017 11:24,12:24:13,2.0.10.248,1,1,1,1,CM1,List1,3,NULL,NULL,NULL,3,1,3,b1,BlockList4,4,NULL,NULL,NULL,17,2,4,NULL,NULL,NULL,NULL,NULL,NULL,e,e,TrialProc,CM1Trails,blue,blue,e,e,1,e,353,1,e,373
DualSimon(I),5006,1,"<?xml version=""1.0""?>\n<Clock xmlns:dt=""urn:schemas-microsoft-com:datatypes""><Description dt:dt=""string"">E-Prime Primary Realtime Clock</Description><StartTime><Timestamp dt:dt=""int"">0</Timestamp><DateUtc dt:dt=""string"">2017-10-12T11:24:13Z</DateUtc></StartTime><FrequencyChanges><FrequencyChange><Frequency dt:dt=""r8"">2923154</Frequency><Timestamp dt:dt=""r8"">764139327347</Timestamp><Current dt:dt=""r8"">0</Current><DateUtc dt:dt=""string"">2017-10-12T11:24:13Z</DateUtc></FrequencyChange></FrequencyChanges></Clock>\n",DualSimon(I)-005006-1,59.955,59.955,1.0.0.528,1,-364266468,Professional,2.0.10.353,2.0.10.353,10/12/2017,12/10/2017 11:24,12:24:13,2.0.10.248,1,1,1,1,CM1,List1,3,NULL,NULL,NULL,3,1,3,b1,BlockList4,5,NULL,NULL,NULL,79,2,5,NULL,NULL,NULL,NULL,NULL,NULL,e,w,TrialProc,CM1Trails,blue,red,w,e,1,e,317,1,w,428
DualSimon(I),5006,1,"<?xml version=""1.0""?>\n<Clock xmlns:dt=""urn:schemas-microsoft-com:datatypes""><Description dt:dt=""string"">E-Prime Primary Realtime Clock</Description><StartTime><Timestamp dt:dt=""int"">0</Timestamp><DateUtc dt:dt=""string"">2017-10-12T11:24:13Z</DateUtc></StartTime><FrequencyChanges><FrequencyChange><Frequency dt:dt=""r8"">2923154</Frequency><Timestamp dt:dt=""r8"">764139327347</Timestamp><Current dt:dt=""r8"">0</Current><DateUtc dt:dt=""string"">2017-10-12T11:24:13Z</DateUtc></FrequencyChange></FrequencyChanges></Clock>\n",DualSimon(I)-005006-1,59.955,59.955,1.0.0.528,1,-364266468,Professional,2.0.10.353,2.0.10.353,10/12/2017,12/10/2017 11:24,12:24:13,2.0.10.248,1,1,1,1,CM1,List1,3,NULL,NULL,NULL,3,1,3,b1,BlockList4,6,NULL,NULL,NULL,72,2,6,NULL,NULL,NULL,NULL,NULL,NULL,w,w,TrialProc,CM1Trails,red,red,e,e,1,w,395,1,w,352
DualSimon(I),5006,1,"<?xml version=""1.0""?>\n<Clock xmlns:dt=""urn:schemas-microsoft-com:datatypes""><Description dt:dt=""string"">E-Prime Primary Realtime Clock</Description><StartTime><Timestamp dt:dt=""int"">0</Timestamp><DateUtc dt:dt=""string"">2017-10-12T11:24:13Z</DateUtc></StartTime><FrequencyChanges><FrequencyChange><Frequency dt:dt=""r8"">2923154</Frequency><Timestamp dt:dt=""r8"">764139327347</Timestamp><Current dt:dt=""r8"">0</Current><DateUtc dt:dt=""string"">2017-10-12T11:24:13Z</DateUtc></FrequencyChange></FrequencyChanges></Clock>\n",DualSimon(I)-005006-1,59.955,59.955,1.0.0.528,1,-364266468,Professional,2.0.10.353,2.0.10.353,10/12/2017,12/10/2017 11:24,12:24:13,2.0.10.248,1,1,1,1,CM1,List1,3,NULL,NULL,NULL,3,1,3,b1,BlockList4,7,NULL,NULL,NULL,6,2,7,NULL,NULL,NULL,NULL,NULL,NULL,w,w,TrialProc,CM1Trails,red,red,e,e,1,w,359,1,w,417
DualSimon(I),5006,1,"<?xml version=""1.0""?>\n<Clock xmlns:dt=""urn:schemas-microsoft-com:datatypes""><Description dt:dt=""string"">E-Prime Primary Realtime Clock</Description><StartTime><Timestamp dt:dt=""int"">0</Timestamp><DateUtc dt:dt=""string"">2017-10-12T11:24:13Z</DateUtc></StartTime><FrequencyChanges><FrequencyChange><Frequency dt:dt=""r8"">2923154</Frequency><Timestamp dt:dt=""r8"">764139327347</Timestamp><Current dt:dt=""r8"">0</Current><DateUtc dt:dt=""string"">2017-10-12T11:24:13Z</DateUtc></FrequencyChange></FrequencyChanges></Clock>\n",DualSimon(I)-005006-1,59.955,59.955,1.0.0.528,1,-364266468,Professional,2.0.10.353,2.0.10.353,10/12/2017,12/10/2017 11:24,12:24:13,2.0.10.248,1,1,1,1,CM1,List1,3,NULL,NULL,NULL,3,1,3,b1,BlockList4,8,NULL,NULL,NULL,63,2,8,NULL,NULL,NULL,NULL,NULL,NULL,e,e,TrialProc,CM1Trails,blue,blue,w,w,1,e,306,1,e,433
DualSimon(I),5006,1,"<?xml version=""1.0""?>\n<Clock xmlns:dt=""urn:schemas-microsoft-com:datatypes""><Description dt:dt=""string"">E-Prime Primary Realtime Clock</Description><StartTime><Timestamp dt:dt=""int"">0</Timestamp><DateUtc dt:dt=""string"">2017-10-12T11:24:13Z</DateUtc></StartTime><FrequencyChanges><FrequencyChange><Frequency dt:dt=""r8"">2923154</Frequency><Timestamp dt:dt=""r8"">764139327347</Timestamp><Current dt:dt=""r8"">0</Current><DateUtc dt:dt=""string"">2017-10-12T11:24:13Z</DateUtc></FrequencyChange></FrequencyChanges></Clock>\n",DualSimon(I)-005006-1,59.955,59.955,1.0.0.528,1,-364266468,Professional,2.0.10.353,2.0.10.353,10/12/2017,12/10/2017 11:24,12:24:13,2.0.10.248,1,1,1,1,CM1,List1,3,NULL,NULL,NULL,3,1,3,b1,BlockList4,9,NULL,NULL,NULL,18,2,9,NULL,NULL,NULL,NULL,NULL,NULL,e,e,TrialProc,CM1Trails,blue,blue,e,e,1,e,261,1,e,362
DualSimon(I),5006,1,"<?xml version=""1.0""?>\n<Clock xmlns:dt=""urn:schemas-microsoft-com:datatypes""><Description dt:dt=""string"">E-Prime Primary Realtime Clock</Description><StartTime><Timestamp dt:dt=""int"">0</Timestamp><DateUtc dt:dt=""string"">2017-10-12T11:24:13Z</DateUtc></StartTime><FrequencyChanges><FrequencyChange><Frequency dt:dt=""r8"">2923154</Frequency><Timestamp dt:dt=""r8"">764139327347</Timestamp><Current dt:dt=""r8"">0</Current><DateUtc dt:dt=""string"">2017-10-12T11:24:13Z</DateUtc></FrequencyChange></FrequencyChanges></Clock>\n",DualSimon(I)-005006-1,59.955,59.955,1.0.0.528,1,-364266468,Professional,2.0.10.353,2.0.10.353,10/12/2017,12/10/2017 11:24,12:24:13,2.0.10.248,1,1,1,1,CM1,List1,3,NULL,NULL,NULL,3,1,3,b1,BlockList4,10,NULL,NULL,NULL,65,2,10,NULL,NULL,NULL,NULL,NULL,NULL,w,w,TrialProc,CM1Trails,red,red,e,e,1,w,310,1,w,397
DualSimon(I),5006,1,"<?xml version=""1.0""?>\n<Clock xmlns:dt=""urn:schemas-microsoft-com:datatypes""><Description dt:dt=""string"">E-Prime Primary Realtime Clock</Description><StartTime><Timestamp dt:dt=""int"">0</Timestamp><DateUtc dt:dt=""string"">2017-10-12T11:24:13Z</DateUtc></StartTime><FrequencyChanges><FrequencyChange><Frequency dt:dt=""r8"">2923154</Frequency><Timestamp dt:dt=""r8"">764139327347</Timestamp><Current dt:dt=""r8"">0</Current><DateUtc dt:dt=""string"">2017-10-12T11:24:13Z</DateUtc></FrequencyChange></FrequencyChanges></Clock>\n",DualSimon(I)-005006-1,59.955,59.955,1.0.0.528,1,-364266468,Professional,2.0.10.353,2.0.10.353,10/12/2017,12/10/2017 11:24,12:24:13,2.0.10.248,1,1,1,1,CM1,List1,3,NULL,NULL,NULL,3,1,3,b1,BlockList4,11,NULL,NULL,NULL,3,2,11,NULL,NULL,NULL,NULL,NULL,NULL,e,w,TrialProc,CM1Trails,blue,red,e,w,1,e,406,1,w,337
DualSimon(I),5006,1,"<?xml version=""1.0""?>\n<Clock xmlns:dt=""urn:schemas-microsoft-com:datatypes""><Description dt:dt=""string"">E-Prime Primary Realtime Clock</Description><StartTime><Timestamp dt:dt=""int"">0</Timestamp><DateUtc dt:dt=""string"">2017-10-12T11:24:13Z</DateUtc></StartTime><FrequencyChanges><FrequencyChange><Frequency dt:dt=""r8"">2923154</Frequency><Timestamp dt:dt=""r8"">764139327347</Timestamp><Current dt:dt=""r8"">0</Current><DateUtc dt:dt=""string"">2017-10-12T11:24:13Z</DateUtc></FrequencyChange></FrequencyChanges></Clock>\n",DualSimon(I)-005006-1,59.955,59.955,1.0.0.528,1,-364266468,Professional,2.0.10.353,2.0.10.353,10/12/2017,12/10/2017 11:24,12:24:13,2.0.10.248,1,1,1,1,CM1,List1,3,NULL,NULL,NULL,3,1,3,b1,BlockList4,12,NULL,NULL,NULL,19,2,12,NULL,NULL,NULL,NULL,NULL,NULL,e,e,TrialProc,CM1Trails,blue,blue,e,e,1,e,266,1,e,363
DualSimon(I),5006,1,"<?xml version=""1.0""?>\n<Clock xmlns:dt=""urn:schemas-microsoft-com:datatypes""><Description dt:dt=""string"">E-Prime Primary Realtime Clock</Description><StartTime><Timestamp dt:dt=""int"">0</Timestamp><DateUtc dt:dt=""string"">2017-10-12T11:24:13Z</DateUtc></StartTime><FrequencyChanges><FrequencyChange><Frequency dt:dt=""r8"">2923154</Frequency><Timestamp dt:dt=""r8"">764139327347</Timestamp><Current dt:dt=""r8"">0</Current><DateUtc dt:dt=""string"">2017-10-12T11:24:13Z</DateUtc></FrequencyChange></FrequencyChanges></Clock>\n",DualSimon(I)-005006-1,59.955,59.955,1.0.0.528,1,-364266468,Professional,2.0.10.353,2.0.10.353,10/12/2017,12/10/2017 11:24,12:24:13,2.0.10.248,1,1,1,1,CM1,List1,3,NULL,NULL,NULL,3,1,3,b1,BlockList4,13,NULL,NULL,NULL,89,2,13,NULL,NULL,NULL,NULL,NULL,NULL,w,e,TrialProc,CM1Trails,red,blue,e,w,1,w,324,1,e,394
DualSimon(I),5006,1,"<?xml version=""1.0""?>\n<Clock xmlns:dt=""urn:schemas-microsoft-com:datatypes""><Description dt:dt=""string"">E-Prime Primary Realtime Clock</Description><StartTime><Timestamp dt:dt=""int"">0</Timestamp><DateUtc dt:dt=""string"">2017-10-12T11:24:13Z</DateUtc></StartTime><FrequencyChanges><FrequencyChange><Frequency dt:dt=""r8"">2923154</Frequency><Timestamp dt:dt=""r8"">764139327347</Timestamp><Current dt:dt=""r8"">0</Current><DateUtc dt:dt=""string"">2017-10-12T11:24:13Z</DateUtc></FrequencyChange></FrequencyChanges></Clock>\n",DualSimon(I)-005006-1,59.955,59.955,1.0.0.528,1,-364266468,Professional,2.0.10.353,2.0.10.353,10/12/2017,12/10/2017 11:24,12:24:13,2.0.10.248,1,1,1,1,CM1,List1,3,NULL,NULL,NULL,3,1,3,b1,BlockList4,14,NULL,NULL,NULL,77,2,14,NULL,NULL,NULL,NULL,NULL,NULL,e,w,TrialProc,CM1Trails,blue,red,w,e,1,e,438,1,w,359
DualSimon(I),5006,1,"<?xml version=""1.0""?>\n<Clock xmlns:dt=""urn:schemas-microsoft-com:datatypes""><Description dt:dt=""string"">E-Prime Primary Realtime Clock</Description><StartTime><Timestamp dt:dt=""int"">0</Timestamp><DateUtc dt:dt=""string"">2017-10-12T11:24:13Z</DateUtc></StartTime><FrequencyChanges><FrequencyChange><Frequency dt:dt=""r8"">2923154</Frequency><Timestamp dt:dt=""r8"">764139327347</Timestamp><Current dt:dt=""r8"">0</Current><DateUtc dt:dt=""string"">2017-10-12T11:24:13Z</DateUtc></FrequencyChange></FrequencyChanges></Clock>\n",DualSimon(I)-005006-1,59.955,59.955,1.0.0.528,1,-364266468,Professional,2.0.10.353,2.0.10.353,10/12/2017,12/10/2017 11:24,12:24:13,2.0.10.248,1,1,1,1,CM1,List1,3,NULL,NULL,NULL,3,1,3,b1,BlockList4,15,NULL,NULL,NULL,74,2,15,NULL,NULL,NULL,NULL,NULL,NULL,w,w,TrialProc,CM1Trails,red,red,e,e,1,w,382,1,w,412
DualSimon(I),5006,1,"<?xml version=""1.0""?>\n<Clock xmlns:dt=""urn:schemas-microsoft-com:datatypes""><Description dt:dt=""string"">E-Prime Primary Realtime Clock</Description><StartTime><Timestamp dt:dt=""int"">0</Timestamp><DateUtc dt:dt=""string"">2017-10-12T11:24:13Z</DateUtc></StartTime><FrequencyChanges><FrequencyChange><Frequency dt:dt=""r8"">2923154</Frequency><Timestamp dt:dt=""r8"">764139327347</Timestamp><Current dt:dt=""r8"">0</Current><DateUtc dt:dt=""string"">2017-10-12T11:24:13Z</DateUtc></FrequencyChange></FrequencyChanges></Clock>\n",DualSimon(I)-005006-1,59.955,59.955,1.0.0.528,1,-364266468,Professional,2.0.10.353,2.0.10.353,10/12/2017,12/10/2017 11:24,12:24:13,2.0.10.248,1,1,1,1,CM1,List1,3,NULL,NULL,NULL,3,1,3,b1,BlockList4,16,NULL,NULL,NULL,95,2,16,NULL,NULL,NULL,NULL,NULL,NULL,w,e,TrialProc,CM1Trails,red,blue,e,w,1,w,330,1,e,427
DualSimon(I),5006,1,"<?xml version=""1.0""?>\n<Clock xmlns:dt=""urn:schemas-microsoft-com:datatypes""><Description dt:dt=""string"">E-Prime Primary Realtime Clock</Description><StartTime><Timestamp dt:dt=""int"">0</Timestamp><DateUtc dt:dt=""string"">2017-10-12T11:24:13Z</DateUtc></StartTime><FrequencyChanges><FrequencyChange><Frequency dt:dt=""r8"">2923154</Frequency><Timestamp dt:dt=""r8"">764139327347</Timestamp><Current dt:dt=""r8"">0</Current><DateUtc dt:dt=""string"">2017-10-12T11:24:13Z</DateUtc></FrequencyChange></FrequencyChanges></Clock>\n",DualSimon(I)-005006-1,59.955,59.955,1.0.0.528,1,-364266468,Professional,2.0.10.353,2.0.10.353,10/12/2017,12/10/2017 11:24,12:24:13,2.0.10.248,1,1,1,1,CM1,List1,3,NULL,NULL,NULL,3,1,3,b1,BlockList4,17,NULL,NULL,NULL,30,2,17,NULL,NULL,NULL,NULL,NULL,NULL,w,w,TrialProc,CM1Trails,red,red,w,w,1,w,700,1,w,409
DualSimon(I),5006,1,"<?xml version=""1.0""?>\n<Clock xmlns:dt=""urn:schemas-microsoft-com:datatypes""><Description dt:dt=""string"">E-Prime Primary Realtime Clock</Description><StartTime><Timestamp dt:dt=""int"">0</Timestamp><DateUtc dt:dt=""string"">2017-10-12T11:24:13Z</DateUtc></StartTime><FrequencyChanges><FrequencyChange><Frequency dt:dt=""r8"">2923154</Frequency><Timestamp dt:dt=""r8"">764139327347</Timestamp><Current dt:dt=""r8"">0</Current><DateUtc dt:dt=""string"">2017-10-12T11:24:13Z</DateUtc></FrequencyChange></FrequencyChanges></Clock>\n",DualSimon(I)-005006-1,59.955,59.955,1.0.0.528,1,-364266468,Professional,2.0.10.353,2.0.10.353,10/12/2017,12/10/2017 11:24,12:24:13,2.0.10.248,1,1,1,1,CM1,List1,3,NULL,NULL,NULL,3,1,3,b1,BlockList4,18,NULL,NULL,NULL,60,2,18,NULL,NULL,NULL,NULL,NULL,NULL,e,e,TrialProc,CM1Trails,blue,blue,w,w,1,e,300,1,e,451
DualSimon(I),5006,1,"<?xml version=""1.0""?>\n<Clock xmlns:dt=""urn:schemas-microsoft-com:datatypes""><Description dt:dt=""string"">E-Prime Primary Realtime Clock</Description><StartTime><Timestamp dt:dt=""int"">0</Timestamp><DateUtc dt:dt=""string"">2017-10-12T11:24:13Z</DateUtc></StartTime><FrequencyChanges><FrequencyChange><Frequency dt:dt=""r8"">2923154</Frequency><Timestamp dt:dt=""r8"">764139327347</Timestamp><Current dt:dt=""r8"">0</Current><DateUtc dt:dt=""string"">2017-10-12T11:24:13Z</DateUtc></FrequencyChange></FrequencyChanges></Clock>\n",DualSimon(I)-005006-1,59.955,59.955,1.0.0.528,1,-364266468,Professional,2.0.10.353,2.0.10.353,10/12/2017,12/10/2017 11:24,12:24:13,2.0.10.248,1,1,1,1,CM1,List1,3,NULL,NULL,NULL,3,1,3,b1,BlockList4,19,NULL,NULL,NULL,22,2,19,NULL,NULL,NULL,NULL,NULL,NULL,w,w,TrialProc,CM1Trails,red,red,w,w,1,w,315,1,w,381
DualSimon(I),5006,1,"<?xml version=""1.0""?>\n<Clock xmlns:dt=""urn:schemas-microsoft-com:datatypes""><Description dt:dt=""string"">E-Prime Primary Realtime Clock</Description><StartTime><Timestamp dt:dt=""int"">0</Timestamp><DateUtc dt:dt=""string"">2017-10-12T11:24:13Z</DateUtc></StartTime><FrequencyChanges><FrequencyChange><Frequency dt:dt=""r8"">2923154</Frequency><Timestamp dt:dt=""r8"">764139327347</Timestamp><Current dt:dt=""r8"">0</Current><DateUtc dt:dt=""string"">2017-10-12T11:24:13Z</DateUtc></FrequencyChange></FrequencyChanges></Clock>\n",DualSimon(I)-005006-1,59.955,59.955,1.0.0.528,1,-364266468,Professional,2.0.10.353,2.0.10.353,10/12/2017,12/10/2017 11:24,12:24:13,2.0.10.248,1,1,1,1,CM1,List1,3,NULL,NULL,NULL,3,1,3,b1,BlockList4,20,NULL,NULL,NULL,51,2,20,NULL,NULL,NULL,NULL,NULL,NULL,w,e,TrialProc,CM1Trails,red,blue,w,e,1,w,262,1,e,416
DualSimon(I),5006,1,"<?xml version=""1.0""?>\n<Clock xmlns:dt=""urn:schemas-microsoft-com:datatypes""><Description dt:dt=""string"">E-Prime Primary Realtime Clock</Description><StartTime><Timestamp dt:dt=""int"">0</Timestamp><DateUtc dt:dt=""string"">2017-10-12T11:24:13Z</DateUtc></StartTime><FrequencyChanges><FrequencyChange><Frequency dt:dt=""r8"">2923154</Frequency><Timestamp dt:dt=""r8"">764139327347</Timestamp><Current dt:dt=""r8"">0</Current><DateUtc dt:dt=""string"">2017-10-12T11:24:13Z</DateUtc></FrequencyChange></FrequencyChanges></Clock>\n",DualSimon(I)-005006-1,59.955,59.955,1.0.0.528,1,-364266468,Professional,2.0.10.353,2.0.10.353,10/12/2017,12/10/2017 11:24,12:24:13,2.0.10.248,1,1,1,1,CM1,List1,3,NULL,NULL,NULL,3,1,3,b1,BlockList4,21,NULL,NULL,NULL,20,2,21,NULL,NULL,NULL,NULL,NULL,NULL,w,w,TrialProc,CM1Trails,red,red,w,w,1,w,323,1,w,313
DualSimon(I),5006,1,"<?xml version=""1.0""?>\n<Clock xmlns:dt=""urn:schemas-microsoft-com:datatypes""><Description dt:dt=""string"">E-Prime Primary Realtime Clock</Description><StartTime><Timestamp dt:dt=""int"">0</Timestamp><DateUtc dt:dt=""string"">2017-10-12T11:24:13Z</DateUtc></StartTime><FrequencyChanges><FrequencyChange><Frequency dt:dt=""r8"">2923154</Frequency><Timestamp dt:dt=""r8"">764139327347</Timestamp><Current dt:dt=""r8"">0</Current><DateUtc dt:dt=""string"">2017-10-12T11:24:13Z</DateUtc></FrequencyChange></FrequencyChanges></Clock>\n",DualSimon(I)-005006-1,59.955,59.955,1.0.0.528,1,-364266468,Professional,2.0.10.353,2.0.10.353,10/12/2017,12/10/2017 11:24,12:24:13,2.0.10.248,1,1,1,1,CM1,List1,3,NULL,NULL,NULL,3,1,3,b1,BlockList4,22,NULL,NULL,NULL,34,2,22,NULL,NULL,NULL,NULL,NULL,NULL,e,w,TrialProc,CM1Trails,blue,red,e,w,1,e,347,1,w,416
DualSimon(I),5006,1,"<?xml version=""1.0""?>\n<Clock xmlns:dt=""urn:schemas-microsoft-com:datatypes""><Description dt:dt=""string"">E-Prime Primary Realtime Clock</Description><StartTime><Timestamp dt:dt=""int"">0</Timestamp><DateUtc dt:dt=""string"">2017-10-12T11:24:13Z</DateUtc></StartTime><FrequencyChanges><FrequencyChange><Frequency dt:dt=""r8"">2923154</Frequency><Timestamp dt:dt=""r8"">764139327347</Timestamp><Current dt:dt=""r8"">0</Current><DateUtc dt:dt=""string"">2017-10-12T11:24:13Z</DateUtc></FrequencyChange></FrequencyChanges></Clock>\n",DualSimon(I)-005006-1,59.955,59.955,1.0.0.528,1,-364266468,Professional,2.0.10.353,2.0.10.353,10/12/2017,12/10/2017 11:24,12:24:13,2.0.10.248,1,1,1,1,CM1,List1,3,NULL,NULL,NULL,3,1,3,b1,BlockList4,23,NULL,NULL,NULL,91,2,23,NULL,NULL,NULL,NULL,NULL,NULL,w,e,TrialProc,CM1Trails,red,blue,e,w,1,w,332,1,e,363
DualSimon(I),5006,1,"<?xml version=""1.0""?>\n<Clock xmlns:dt=""urn:schemas-microsoft-com:datatypes""><Description dt:dt=""string"">E-Prime Primary Realtime Clock</Description><StartTime><Timestamp dt:dt=""int"">0</Timestamp><DateUtc dt:dt=""string"">2017-10-12T11:24:13Z</DateUtc></StartTime><FrequencyChanges><FrequencyChange><Frequency dt:dt=""r8"">2923154</Frequency><Timestamp dt:dt=""r8"">764139327347</Timestamp><Current dt:dt=""r8"">0</Current><DateUtc dt:dt=""string"">2017-10-12T11:24:13Z</DateUtc></FrequencyChange></FrequencyChanges></Clock>\n",DualSimon(I)-005006-1,59.955,59.955,1.0.0.528,1,-364266468,Professional,2.0.10.353,2.0.10.353,10/12/2017,12/10/2017 11:24,12:24:13,2.0.10.248,1,1,1,1,CM1,List1,3,NULL,NULL,NULL,3,1,3,b1,BlockList4,24,NULL,NULL,NULL,11,2,24,NULL,NULL,NULL,NULL,NULL,NULL,e,e,TrialProc,CM1Trails,blue,blue,e,e,1,e,385,1,e,420
DualSimon(I),5006,1,"<?xml version=""1.0""?>\n<Clock xmlns:dt=""urn:schemas-microsoft-com:datatypes""><Description dt:dt=""string"">E-Prime Primary Realtime Clock</Description><StartTime><Timestamp dt:dt=""int"">0</Timestamp><DateUtc dt:dt=""string"">2017-10-12T11:24:13Z</DateUtc></StartTime><FrequencyChanges><FrequencyChange><Frequency dt:dt=""r8"">2923154</Frequency><Timestamp dt:dt=""r8"">764139327347</Timestamp><Current dt:dt=""r8"">0</Current><DateUtc dt:dt=""string"">2017-10-12T11:24:13Z</DateUtc></FrequencyChange></FrequencyChanges></Clock>\n",DualSimon(I)-005006-1,59.955,59.955,1.0.0.528,1,-364266468,Professional,2.0.10.353,2.0.10.353,10/12/2017,12/10/2017 11:24,12:24:13,2.0.10.248,1,1,1,1,CM1,List1,3,NULL,NULL,NULL,3,1,3,b1,BlockList4,25,NULL,NULL,NULL,83,2,25,NULL,NULL,NULL,NULL,NULL,NULL,e,w,TrialProc,CM1Trails,blue,red,w,e,1,e,342,1,w,370
DualSimon(I),5006,1,"<?xml version=""1.0""?>\n<Clock xmlns:dt=""urn:schemas-microsoft-com:datatypes""><Description dt:dt=""string"">E-Prime Primary Realtime Clock</Description><StartTime><Timestamp dt:dt=""int"">0</Timestamp><DateUtc dt:dt=""string"">2017-10-12T11:24:13Z</DateUtc></StartTime><FrequencyChanges><FrequencyChange><Frequency dt:dt=""r8"">2923154</Frequency><Timestamp dt:dt=""r8"">764139327347</Timestamp><Current dt:dt=""r8"">0</Current><DateUtc dt:dt=""string"">2017-10-12T11:24:13Z</DateUtc></FrequencyChange></FrequencyChanges></Clock>\n",DualSimon(I)-005006-1,59.955,59.955,1.0.0.528,1,-364266468,Professional,2.0.10.353,2.0.10.353,10/12/2017,12/10/2017 11:24,12:24:13,2.0.10.248,1,1,1,1,CM1,List1,3,NULL,NULL,NULL,3,1,3,b1,BlockList4,26,NULL,NULL,NULL,88,2,26,NULL,NULL,NULL,NULL,NULL,NULL,w,e,TrialProc,CM1Trails,red,blue,e,w,1,w,347,1,e,406
DualSimon(I),5006,1,"<?xml version=""1.0""?>\n<Clock xmlns:dt=""urn:schemas-microsoft-com:datatypes""><Description dt:dt=""string"">E-Prime Primary Realtime Clock</Description><StartTime><Timestamp dt:dt=""int"">0</Timestamp><DateUtc dt:dt=""string"">2017-10-12T11:24:13Z</DateUtc></StartTime><FrequencyChanges><FrequencyChange><Frequency dt:dt=""r8"">2923154</Frequency><Timestamp dt:dt=""r8"">764139327347</Timestamp><Current dt:dt=""r8"">0</Current><DateUtc dt:dt=""string"">2017-10-12T11:24:13Z</DateUtc></FrequencyChange></FrequencyChanges></Clock>\n",DualSimon(I)-005006-1,59.955,59.955,1.0.0.528,1,-364266468,Professional,2.0.10.353,2.0.10.353,10/12/2017,12/10/2017 11:24,12:24:13,2.0.10.248,1,1,1,1,CM1,List1,3,NULL,NULL,NULL,3,1,3,b1,BlockList4,27,NULL,NULL,NULL,14,2,27,NULL,NULL,NULL,NULL,NULL,NULL,e,e,TrialProc,CM1Trails,blue,blue,e,e,1,e,333,1,e,425
DualSimon(I),5006,1,"<?xml version=""1.0""?>\n<Clock xmlns:dt=""urn:schemas-microsoft-com:datatypes""><Description dt:dt=""string"">E-Prime Primary Realtime Clock</Description><StartTime><Timestamp dt:dt=""int"">0</Timestamp><DateUtc dt:dt=""string"">2017-10-12T11:24:13Z</DateUtc></StartTime><FrequencyChanges><FrequencyChange><Frequency dt:dt=""r8"">2923154</Frequency><Timestamp dt:dt=""r8"">764139327347</Timestamp><Current dt:dt=""r8"">0</Current><DateUtc dt:dt=""string"">2017-10-12T11:24:13Z</DateUtc></FrequencyChange></FrequencyChanges></Clock>\n",DualSimon(I)-005006-1,59.955,59.955,1.0.0.528,1,-364266468,Professional,2.0.10.353,2.0.10.353,10/12/2017,12/10/2017 11:24,12:24:13,2.0.10.248,1,1,1,1,CM1,List1,3,NULL,NULL,NULL,3,1,3,b1,BlockList4,28,NULL,NULL,NULL,94,2,28,NULL,NULL,NULL,NULL,NULL,NULL,w,e,TrialProc,CM1Trails,red,blue,e,w,1,w,307,1,e,423
DualSimon(I),5006,1,"<?xml version=""1.0""?>\n<Clock xmlns:dt=""urn:schemas-microsoft-com:datatypes""><Description dt:dt=""string"">E-Prime Primary Realtime Clock</Description><StartTime><Timestamp dt:dt=""int"">0</Timestamp><DateUtc dt:dt=""string"">2017-10-12T11:24:13Z</DateUtc></StartTime><FrequencyChanges><FrequencyChange><Frequency dt:dt=""r8"">2923154</Frequency><Timestamp dt:dt=""r8"">764139327347</Timestamp><Current dt:dt=""r8"">0</Current><DateUtc dt:dt=""string"">2017-10-12T11:24:13Z</DateUtc></FrequencyChange></FrequencyChanges></Clock>\n",DualSimon(I)-005006-1,59.955,59.955,1.0.0.528,1,-364266468,Professional,2.0.10.353,2.0.10.353,10/12/2017,12/10/2017 11:24,12:24:13,2.0.10.248,1,1,1,1,CM1,List1,3,NULL,NULL,NULL,3,1,3,b1,BlockList4,29,NULL,NULL,NULL,61,2,29,NULL,NULL,NULL,NULL,NULL,NULL,e,e,TrialProc,CM1Trails,blue,blue,w,w,1,e,291,1,e,395
DualSimon(I),5006,1,"<?xml version=""1.0""?>\n<Clock xmlns:dt=""urn:schemas-microsoft-com:datatypes""><Description dt:dt=""string"">E-Prime Primary Realtime Clock</Description><StartTime><Timestamp dt:dt=""int"">0</Timestamp><DateUtc dt:dt=""string"">2017-10-12T11:24:13Z</DateUtc></StartTime><FrequencyChanges><FrequencyChange><Frequency dt:dt=""r8"">2923154</Frequency><Timestamp dt:dt=""r8"">764139327347</Timestamp><Current dt:dt=""r8"">0</Current><DateUtc dt:dt=""string"">2017-10-12T11:24:13Z</DateUtc></FrequencyChange></FrequencyChanges></Clock>\n",DualSimon(I)-005006-1,59.955,59.955,1.0.0.528,1,-364266468,Professional,2.0.10.353,2.0.10.353,10/12/2017,12/10/2017 11:24,12:24:13,2.0.10.248,1,1,1,1,CM1,List1,3,NULL,NULL,NULL,3,1,3,b1,BlockList4,30,NULL,NULL,NULL,56,2,30,NULL,NULL,NULL,NULL,NULL,NULL,e,e,TrialProc,CM1Trails,blue,blue,w,w,1,e,361,1,e,375
DualSimon(I),5006,1,"<?xml version=""1.0""?>\n<Clock xmlns:dt=""urn:schemas-microsoft-com:datatypes""><Description dt:dt=""string"">E-Prime Primary Realtime Clock</Description><StartTime><Timestamp dt:dt=""int"">0</Timestamp><DateUtc dt:dt=""string"">2017-10-12T11:24:13Z</DateUtc></StartTime><FrequencyChanges><FrequencyChange><Frequency dt:dt=""r8"">2923154</Frequency><Timestamp dt:dt=""r8"">764139327347</Timestamp><Current dt:dt=""r8"">0</Current><DateUtc dt:dt=""string"">2017-10-12T11:24:13Z</DateUtc></FrequencyChange></FrequencyChanges></Clock>\n",DualSimon(I)-005006-1,59.955,59.955,1.0.0.528,1,-364266468,Professional,2.0.10.353,2.0.10.353,10/12/2017,12/10/2017 11:24,12:24:13,2.0.10.248,1,1,1,1,CM1,List1,3,NULL,NULL,NULL,3,1,3,b1,BlockList4,31,NULL,NULL,NULL,2,2,31,NULL,NULL,NULL,NULL,NULL,NULL,w,w,TrialProc,CM1Trails,red,red,w,w,1,w,323,1,w,370
DualSimon(I),5006,1,"<?xml version=""1.0""?>\n<Clock xmlns:dt=""urn:schemas-microsoft-com:datatypes""><Description dt:dt=""string"">E-Prime Primary Realtime Clock</Description><StartTime><Timestamp dt:dt=""int"">0</Timestamp><DateUtc dt:dt=""string"">2017-10-12T11:24:13Z</DateUtc></StartTime><FrequencyChanges><FrequencyChange><Frequency dt:dt=""r8"">2923154</Frequency><Timestamp dt:dt=""r8"">764139327347</Timestamp><Current dt:dt=""r8"">0</Current><DateUtc dt:dt=""string"">2017-10-12T11:24:13Z</DateUtc></FrequencyChange></FrequencyChanges></Clock>\n",DualSimon(I)-005006-1,59.955,59.955,1.0.0.528,1,-364266468,Professional,2.0.10.353,2.0.10.353,10/12/2017,12/10/2017 11:24,12:24:13,2.0.10.248,1,1,1,1,CM1,List1,3,NULL,NULL,NULL,3,1,3,b1,BlockList4,32,NULL,NULL,NULL,1,2,32,NULL,NULL,NULL,NULL,NULL,NULL,e,e,TrialProc,CM1Trails,blue,blue,e,e,1,e,333,1,e,367
DualSimon(I),5006,1,"<?xml version=""1.0""?>\n<Clock xmlns:dt=""urn:schemas-microsoft-com:datatypes""><Description dt:dt=""string"">E-Prime Primary Realtime Clock</Description><StartTime><Timestamp dt:dt=""int"">0</Timestamp><DateUtc dt:dt=""string"">2017-10-12T11:24:13Z</DateUtc></StartTime><FrequencyChanges><FrequencyChange><Frequency dt:dt=""r8"">2923154</Frequency><Timestamp dt:dt=""r8"">764139327347</Timestamp><Current dt:dt=""r8"">0</Current><DateUtc dt:dt=""string"">2017-10-12T11:24:13Z</DateUtc></FrequencyChange></FrequencyChanges></Clock>\n",DualSimon(I)-005006-1,59.955,59.955,1.0.0.528,1,-364266468,Professional,2.0.10.353,2.0.10.353,10/12/2017,12/10/2017 11:24,12:24:13,2.0.10.248,1,1,1,1,CM1,List1,3,NULL,NULL,NULL,3,1,3,b1,BlockList4,33,NULL,NULL,NULL,84,2,33,NULL,NULL,NULL,NULL,NULL,NULL,e,w,TrialProc,CM1Trails,blue,red,w,e,1,e,348,1,w,420
DualSimon(I),5006,1,"<?xml version=""1.0""?>\n<Clock xmlns:dt=""urn:schemas-microsoft-com:datatypes""><Description dt:dt=""string"">E-Prime Primary Realtime Clock</Description><StartTime><Timestamp dt:dt=""int"">0</Timestamp><DateUtc dt:dt=""string"">2017-10-12T11:24:13Z</DateUtc></StartTime><FrequencyChanges><FrequencyChange><Frequency dt:dt=""r8"">2923154</Frequency><Timestamp dt:dt=""r8"">764139327347</Timestamp><Current dt:dt=""r8"">0</Current><DateUtc dt:dt=""string"">2017-10-12T11:24:13Z</DateUtc></FrequencyChange></FrequencyChanges></Clock>\n",DualSimon(I)-005006-1,59.955,59.955,1.0.0.528,1,-364266468,Professional,2.0.10.353,2.0.10.353,10/12/2017,12/10/2017 11:24,12:24:13,2.0.10.248,1,1,1,1,CM1,List1,3,NULL,NULL,NULL,3,1,3,b1,BlockList4,34,NULL,NULL,NULL,58,2,34,NULL,NULL,NULL,NULL,NULL,NULL,e,e,TrialProc,CM1Trails,blue,blue,w,w,1,e,358,1,e,442
DualSimon(I),5006,1,"<?xml version=""1.0""?>\n<Clock xmlns:dt=""urn:schemas-microsoft-com:datatypes""><Description dt:dt=""string"">E-Prime Primary Realtime Clock</Description><StartTime><Timestamp dt:dt=""int"">0</Timestamp><DateUtc dt:dt=""string"">2017-10-12T11:24:13Z</DateUtc></StartTime><FrequencyChanges><FrequencyChange><Frequency dt:dt=""r8"">2923154</Frequency><Timestamp dt:dt=""r8"">764139327347</Timestamp><Current dt:dt=""r8"">0</Current><DateUtc dt:dt=""string"">2017-10-12T11:24:13Z</DateUtc></FrequencyChange></FrequencyChanges></Clock>\n",DualSimon(I)-005006-1,59.955,59.955,1.0.0.528,1,-364266468,Professional,2.0.10.353,2.0.10.353,10/12/2017,12/10/2017 11:24,12:24:13,2.0.10.248,1,1,1,1,CM1,List1,3,NULL,NULL,NULL,3,1,3,b1,BlockList4,35,NULL,NULL,NULL,8,2,35,NULL,NULL,NULL,NULL,NULL,NULL,w,e,TrialProc,CM1Trails,red,blue,e,w,1,w,334,1,e,439
DualSimon(I),5006,1,"<?xml version=""1.0""?>\n<Clock xmlns:dt=""urn:schemas-microsoft-com:datatypes""><Description dt:dt=""string"">E-Prime Primary Realtime Clock</Description><StartTime><Timestamp dt:dt=""int"">0</Timestamp><DateUtc dt:dt=""string"">2017-10-12T11:24:13Z</DateUtc></StartTime><FrequencyChanges><FrequencyChange><Frequency dt:dt=""r8"">2923154</Frequency><Timestamp dt:dt=""r8"">764139327347</Timestamp><Current dt:dt=""r8"">0</Current><DateUtc dt:dt=""string"">2017-10-12T11:24:13Z</DateUtc></FrequencyChange></FrequencyChanges></Clock>\n",DualSimon(I)-005006-1,59.955,59.955,1.0.0.528,1,-364266468,Professional,2.0.10.353,2.0.10.353,10/12/2017,12/10/2017 11:24,12:24:13,2.0.10.248,1,1,1,1,CM1,List1,3,NULL,NULL,NULL,3,1,3,b1,BlockList4,36,NULL,NULL,NULL,4,2,36,NULL,NULL,NULL,NULL,NULL,NULL,w,e,TrialProc,CM1Trails,red,blue,w,e,1,w,367,1,e,469
DualSimon(I),5006,1,"<?xml version=""1.0""?>\n<Clock xmlns:dt=""urn:schemas-microsoft-com:datatypes""><Description dt:dt=""string"">E-Prime Primary Realtime Clock</Description><StartTime><Timestamp dt:dt=""int"">0</Timestamp><DateUtc dt:dt=""string"">2017-10-12T11:24:13Z</DateUtc></StartTime><FrequencyChanges><FrequencyChange><Frequency dt:dt=""r8"">2923154</Frequency><Timestamp dt:dt=""r8"">764139327347</Timestamp><Current dt:dt=""r8"">0</Current><DateUtc dt:dt=""string"">2017-10-12T11:24:13Z</DateUtc></FrequencyChange></FrequencyChanges></Clock>\n",DualSimon(I)-005006-1,59.955,59.955,1.0.0.528,1,-364266468,Professional,2.0.10.353,2.0.10.353,10/12/2017,12/10/2017 11:24,12:24:13,2.0.10.248,1,1,1,1,CM1,List1,3,NULL,NULL,NULL,3,1,3,b1,BlockList4,37,NULL,NULL,NULL,49,2,37,NULL,NULL,NULL,NULL,NULL,NULL,w,e,TrialProc,CM1Trails,red,blue,w,e,1,w,352,1,e,361
DualSimon(I),5006,1,"<?xml version=""1.0""?>\n<Clock xmlns:dt=""urn:schemas-microsoft-com:datatypes""><Description dt:dt=""string"">E-Prime Primary Realtime Clock</Description><StartTime><Timestamp dt:dt=""int"">0</Timestamp><DateUtc dt:dt=""string"">2017-10-12T11:24:13Z</DateUtc></StartTime><FrequencyChanges><FrequencyChange><Frequency dt:dt=""r8"">2923154</Frequency><Timestamp dt:dt=""r8"">764139327347</Timestamp><Current dt:dt=""r8"">0</Current><DateUtc dt:dt=""string"">2017-10-12T11:24:13Z</DateUtc></FrequencyChange></FrequencyChanges></Clock>\n",DualSimon(I)-005006-1,59.955,59.955,1.0.0.528,1,-364266468,Professional,2.0.10.353,2.0.10.353,10/12/2017,12/10/2017 11:24,12:24:13,2.0.10.248,1,1,1,1,CM1,List1,3,NULL,NULL,NULL,3,1,3,b1,BlockList4,38,NULL,NULL,NULL,7,2,38,NULL,NULL,NULL,NULL,NULL,NULL,e,w,TrialProc,CM1Trails,blue,red,w,e,1,e,339,1,w,344
DualSimon(I),5006,1,"<?xml version=""1.0""?>\n<Clock xmlns:dt=""urn:schemas-microsoft-com:datatypes""><Description dt:dt=""string"">E-Prime Primary Realtime Clock</Description><StartTime><Timestamp dt:dt=""int"">0</Timestamp><DateUtc dt:dt=""string"">2017-10-12T11:24:13Z</DateUtc></StartTime><FrequencyChanges><FrequencyChange><Frequency dt:dt=""r8"">2923154</Frequency><Timestamp dt:dt=""r8"">764139327347</Timestamp><Current dt:dt=""r8"">0</Current><DateUtc dt:dt=""string"">2017-10-12T11:24:13Z</DateUtc></FrequencyChange></FrequencyChanges></Clock>\n",DualSimon(I)-005006-1,59.955,59.955,1.0.0.528,1,-364266468,Professional,2.0.10.353,2.0.10.353,10/12/2017,12/10/2017 11:24,12:24:13,2.0.10.248,1,1,1,1,CM1,List1,3,NULL,NULL,NULL,3,1,3,b1,BlockList4,39,NULL,NULL,NULL,13,2,39,NULL,NULL,NULL,NULL,NULL,NULL,e,e,TrialProc,CM1Trails,blue,blue,e,e,1,e,289,1,e,345
DualSimon(I),5006,1,"<?xml version=""1.0""?>\n<Clock xmlns:dt=""urn:schemas-microsoft-com:datatypes""><Description dt:dt=""string"">E-Prime Primary Realtime Clock</Description><StartTime><Timestamp dt:dt=""int"">0</Timestamp><DateUtc dt:dt=""string"">2017-10-12T11:24:13Z</DateUtc></StartTime><FrequencyChanges><FrequencyChange><Frequency dt:dt=""r8"">2923154</Frequency><Timestamp dt:dt=""r8"">764139327347</Timestamp><Current dt:dt=""r8"">0</Current><DateUtc dt:dt=""string"">2017-10-12T11:24:13Z</DateUtc></FrequencyChange></FrequencyChanges></Clock>\n",DualSimon(I)-005006-1,59.955,59.955,1.0.0.528,1,-364266468,Professional,2.0.10.353,2.0.10.353,10/12/2017,12/10/2017 11:24,12:24:13,2.0.10.248,1,1,1,1,CM1,List1,3,NULL,NULL,NULL,3,1,3,b1,BlockList4,40,NULL,NULL,NULL,37,2,40,NULL,NULL,NULL,NULL,NULL,NULL,e,w,TrialProc,CM1Trails,blue,red,e,w,1,e,276,1,w,416
DualSimon(I),5006,1,"<?xml version=""1.0""?>\n<Clock xmlns:dt=""urn:schemas-microsoft-com:datatypes""><Description dt:dt=""string"">E-Prime Primary Realtime Clock</Description><StartTime><Timestamp dt:dt=""int"">0</Timestamp><DateUtc dt:dt=""string"">2017-10-12T11:24:13Z</DateUtc></StartTime><FrequencyChanges><FrequencyChange><Frequency dt:dt=""r8"">2923154</Frequency><Timestamp dt:dt=""r8"">764139327347</Timestamp><Current dt:dt=""r8"">0</Current><DateUtc dt:dt=""string"">2017-10-12T11:24:13Z</DateUtc></FrequencyChange></FrequencyChanges></Clock>\n",DualSimon(I)-005006-1,59.955,59.955,1.0.0.528,1,-364266468,Professional,2.0.10.353,2.0.10.353,10/12/2017,12/10/2017 11:24,12:24:13,2.0.10.248,1,1,1,1,CM1,List1,3,NULL,NULL,NULL,3,1,3,b1,BlockList4,41,NULL,NULL,NULL,81,2,41,NULL,NULL,NULL,NULL,NULL,NULL,e,w,TrialProc,CM1Trails,blue,red,w,e,0,w,241,1,w,413
DualSimon(I),5006,1,"<?xml version=""1.0""?>\n<Clock xmlns:dt=""urn:schemas-microsoft-com:datatypes""><Description dt:dt=""string"">E-Prime Primary Realtime Clock</Description><StartTime><Timestamp dt:dt=""int"">0</Timestamp><DateUtc dt:dt=""string"">2017-10-12T11:24:13Z</DateUtc></StartTime><FrequencyChanges><FrequencyChange><Frequency dt:dt=""r8"">2923154</Frequency><Timestamp dt:dt=""r8"">764139327347</Timestamp><Current dt:dt=""r8"">0</Current><DateUtc dt:dt=""string"">2017-10-12T11:24:13Z</DateUtc></FrequencyChange></FrequencyChanges></Clock>\n",DualSimon(I)-005006-1,59.955,59.955,1.0.0.528,1,-364266468,Professional,2.0.10.353,2.0.10.353,10/12/2017,12/10/2017 11:24,12:24:13,2.0.10.248,1,1,1,1,CM1,List1,3,NULL,NULL,NULL,3,1,3,b1,BlockList4,42,NULL,NULL,NULL,50,2,42,NULL,NULL,NULL,NULL,NULL,NULL,w,e,TrialProc,CM1Trails,red,blue,w,e,1,w,291,1,e,385
DualSimon(I),5006,1,"<?xml version=""1.0""?>\n<Clock xmlns:dt=""urn:schemas-microsoft-com:datatypes""><Description dt:dt=""string"">E-Prime Primary Realtime Clock</Description><StartTime><Timestamp dt:dt=""int"">0</Timestamp><DateUtc dt:dt=""string"">2017-10-12T11:24:13Z</DateUtc></StartTime><FrequencyChanges><FrequencyChange><Frequency dt:dt=""r8"">2923154</Frequency><Timestamp dt:dt=""r8"">764139327347</Timestamp><Current dt:dt=""r8"">0</Current><DateUtc dt:dt=""string"">2017-10-12T11:24:13Z</DateUtc></FrequencyChange></FrequencyChanges></Clock>\n",DualSimon(I)-005006-1,59.955,59.955,1.0.0.528,1,-364266468,Professional,2.0.10.353,2.0.10.353,10/12/2017,12/10/2017 11:24,12:24:13,2.0.10.248,1,1,1,1,CM1,List1,3,NULL,NULL,NULL,3,1,3,b1,BlockList4,43,NULL,NULL,NULL,53,2,43,NULL,NULL,NULL,NULL,NULL,NULL,e,e,TrialProc,CM1Trails,blue,blue,w,w,1,e,451,0,w,386
DualSimon(I),5006,1,"<?xml version=""1.0""?>\n<Clock xmlns:dt=""urn:schemas-microsoft-com:datatypes""><Description dt:dt=""string"">E-Prime Primary Realtime Clock</Description><StartTime><Timestamp dt:dt=""int"">0</Timestamp><DateUtc dt:dt=""string"">2017-10-12T11:24:13Z</DateUtc></StartTime><FrequencyChanges><FrequencyChange><Frequency dt:dt=""r8"">2923154</Frequency><Timestamp dt:dt=""r8"">764139327347</Timestamp><Current dt:dt=""r8"">0</Current><DateUtc dt:dt=""string"">2017-10-12T11:24:13Z</DateUtc></FrequencyChange></FrequencyChanges></Clock>\n",DualSimon(I)-005006-1,59.955,59.955,1.0.0.528,1,-364266468,Professional,2.0.10.353,2.0.10.353,10/12/2017,12/10/2017 11:24,12:24:13,2.0.10.248,1,1,1,1,CM1,List1,3,NULL,NULL,NULL,3,1,3,b1,BlockList4,44,NULL,NULL,NULL,48,2,44,NULL,NULL,NULL,NULL,NULL,NULL,w,e,TrialProc,CM1Trails,red,blue,w,e,1,w,361,1,e,487
DualSimon(I),5006,1,"<?xml version=""1.0""?>\n<Clock xmlns:dt=""urn:schemas-microsoft-com:datatypes""><Description dt:dt=""string"">E-Prime Primary Realtime Clock</Description><StartTime><Timestamp dt:dt=""int"">0</Timestamp><DateUtc dt:dt=""string"">2017-10-12T11:24:13Z</DateUtc></StartTime><FrequencyChanges><FrequencyChange><Frequency dt:dt=""r8"">2923154</Frequency><Timestamp dt:dt=""r8"">764139327347</Timestamp><Current dt:dt=""r8"">0</Current><DateUtc dt:dt=""string"">2017-10-12T11:24:13Z</DateUtc></FrequencyChange></FrequencyChanges></Clock>\n",DualSimon(I)-005006-1,59.955,59.955,1.0.0.528,1,-364266468,Professional,2.0.10.353,2.0.10.353,10/12/2017,12/10/2017 11:24,12:24:13,2.0.10.248,1,1,1,1,CM1,List1,3,NULL,NULL,NULL,3,1,3,b1,BlockList4,45,NULL,NULL,NULL,92,2,45,NULL,NULL,NULL,NULL,NULL,NULL,w,e,TrialProc,CM1Trails,red,blue,e,w,1,w,373,1,e,389
DualSimon(I),5006,1,"<?xml version=""1.0""?>\n<Clock xmlns:dt=""urn:schemas-microsoft-com:datatypes""><Description dt:dt=""string"">E-Prime Primary Realtime Clock</Description><StartTime><Timestamp dt:dt=""int"">0</Timestamp><DateUtc dt:dt=""string"">2017-10-12T11:24:13Z</DateUtc></StartTime><FrequencyChanges><FrequencyChange><Frequency dt:dt=""r8"">2923154</Frequency><Timestamp dt:dt=""r8"">764139327347</Timestamp><Current dt:dt=""r8"">0</Current><DateUtc dt:dt=""string"">2017-10-12T11:24:13Z</DateUtc></FrequencyChange></FrequencyChanges></Clock>\n",DualSimon(I)-005006-1,59.955,59.955,1.0.0.528,1,-364266468,Professional,2.0.10.353,2.0.10.353,10/12/2017,12/10/2017 11:24,12:24:13,2.0.10.248,1,1,1,1,CM1,List1,3,NULL,NULL,NULL,3,1,3,b1,BlockList4,46,NULL,NULL,NULL,54,2,46,NULL,NULL,NULL,NULL,NULL,NULL,e,e,TrialProc,CM1Trails,blue,blue,w,w,1,e,386,1,e,444
DualSimon(I),5006,1,"<?xml version=""1.0""?>\n<Clock xmlns:dt=""urn:schemas-microsoft-com:datatypes""><Description dt:dt=""string"">E-Prime Primary Realtime Clock</Description><StartTime><Timestamp dt:dt=""int"">0</Timestamp><DateUtc dt:dt=""string"">2017-10-12T11:24:13Z</DateUtc></StartTime><FrequencyChanges><FrequencyChange><Frequency dt:dt=""r8"">2923154</Frequency><Timestamp dt:dt=""r8"">764139327347</Timestamp><Current dt:dt=""r8"">0</Current><DateUtc dt:dt=""string"">2017-10-12T11:24:13Z</DateUtc></FrequencyChange></FrequencyChanges></Clock>\n",DualSimon(I)-005006-1,59.955,59.955,1.0.0.528,1,-364266468,Professional,2.0.10.353,2.0.10.353,10/12/2017,12/10/2017 11:24,12:24:13,2.0.10.248,1,1,1,1,CM1,List1,3,NULL,NULL,NULL,3,1,3,b1,BlockList4,47,NULL,NULL,NULL,66,2,47,NULL,NULL,NULL,NULL,NULL,NULL,w,w,TrialProc,CM1Trails,red,red,e,e,1,w,335,1,w,348
DualSimon(I),5006,1,"<?xml version=""1.0""?>\n<Clock xmlns:dt=""urn:schemas-microsoft-com:datatypes""><Description dt:dt=""string"">E-Prime Primary Realtime Clock</Description><StartTime><Timestamp dt:dt=""int"">0</Timestamp><DateUtc dt:dt=""string"">2017-10-12T11:24:13Z</DateUtc></StartTime><FrequencyChanges><FrequencyChange><Frequency dt:dt=""r8"">2923154</Frequency><Timestamp dt:dt=""r8"">764139327347</Timestamp><Current dt:dt=""r8"">0</Current><DateUtc dt:dt=""string"">2017-10-12T11:24:13Z</DateUtc></FrequencyChange></FrequencyChanges></Clock>\n",DualSimon(I)-005006-1,59.955,59.955,1.0.0.528,1,-364266468,Professional,2.0.10.353,2.0.10.353,10/12/2017,12/10/2017 11:24,12:24:13,2.0.10.248,1,1,1,1,CM1,List1,3,NULL,NULL,NULL,3,1,3,b1,BlockList4,48,NULL,NULL,NULL,36,2,48,NULL,NULL,NULL,NULL,NULL,NULL,e,w,TrialProc,CM1Trails,blue,red,e,w,1,e,4033,1,w,430
DualSimon(I),5006,1,"<?xml version=""1.0""?>\n<Clock xmlns:dt=""urn:schemas-microsoft-com:datatypes""><Description dt:dt=""string"">E-Prime Primary Realtime Clock</Description><StartTime><Timestamp dt:dt=""int"">0</Timestamp><DateUtc dt:dt=""string"">2017-10-12T11:24:13Z</DateUtc></StartTime><FrequencyChanges><FrequencyChange><Frequency dt:dt=""r8"">2923154</Frequency><Timestamp dt:dt=""r8"">764139327347</Timestamp><Current dt:dt=""r8"">0</Current><DateUtc dt:dt=""string"">2017-10-12T11:24:13Z</DateUtc></FrequencyChange></FrequencyChanges></Clock>\n",DualSimon(I)-005006-1,59.955,59.955,1.0.0.528,1,-364266468,Professional,2.0.10.353,2.0.10.353,10/12/2017,12/10/2017 11:24,12:24:13,2.0.10.248,1,1,1,1,CM1,List1,3,NULL,NULL,NULL,3,1,3,b1,BlockList4,49,NULL,NULL,NULL,12,2,49,NULL,NULL,NULL,NULL,NULL,NULL,e,e,TrialProc,CM1Trails,blue,blue,e,e,1,e,437,1,e,511
DualSimon(I),5006,1,"<?xml version=""1.0""?>\n<Clock xmlns:dt=""urn:schemas-microsoft-com:datatypes""><Description dt:dt=""string"">E-Prime Primary Realtime Clock</Description><StartTime><Timestamp dt:dt=""int"">0</Timestamp><DateUtc dt:dt=""string"">2017-10-12T11:24:13Z</DateUtc></StartTime><FrequencyChanges><FrequencyChange><Frequency dt:dt=""r8"">2923154</Frequency><Timestamp dt:dt=""r8"">764139327347</Timestamp><Current dt:dt=""r8"">0</Current><DateUtc dt:dt=""string"">2017-10-12T11:24:13Z</DateUtc></FrequencyChange></FrequencyChanges></Clock>\n",DualSimon(I)-005006-1,59.955,59.955,1.0.0.528,1,-364266468,Professional,2.0.10.353,2.0.10.353,10/12/2017,12/10/2017 11:24,12:24:13,2.0.10.248,1,1,1,1,CM1,List1,3,NULL,NULL,NULL,3,1,3,b1,BlockList4,50,NULL,NULL,NULL,33,2,50,NULL,NULL,NULL,NULL,NULL,NULL,e,w,TrialProc,CM1Trails,blue,red,e,w,1,e,294,1,w,471
DualSimon(I),5006,1,"<?xml version=""1.0""?>\n<Clock xmlns:dt=""urn:schemas-microsoft-com:datatypes""><Description dt:dt=""string"">E-Prime Primary Realtime Clock</Description><StartTime><Timestamp dt:dt=""int"">0</Timestamp><DateUtc dt:dt=""string"">2017-10-12T11:24:13Z</DateUtc></StartTime><FrequencyChanges><FrequencyChange><Frequency dt:dt=""r8"">2923154</Frequency><Timestamp dt:dt=""r8"">764139327347</Timestamp><Current dt:dt=""r8"">0</Current><DateUtc dt:dt=""string"">2017-10-12T11:24:13Z</DateUtc></FrequencyChange></FrequencyChanges></Clock>\n",DualSimon(I)-005006-1,59.955,59.955,1.0.0.528,1,-364266468,Professional,2.0.10.353,2.0.10.353,10/12/2017,12/10/2017 11:24,12:24:13,2.0.10.248,1,1,1,1,CM1,List1,3,NULL,NULL,NULL,3,1,3,b1,BlockList4,51,NULL,NULL,NULL,71,2,51,NULL,NULL,NULL,NULL,NULL,NULL,w,w,TrialProc,CM1Trails,red,red,e,e,1,w,347,1,w,439
DualSimon(I),5006,1,"<?xml version=""1.0""?>\n<Clock xmlns:dt=""urn:schemas-microsoft-com:datatypes""><Description dt:dt=""string"">E-Prime Primary Realtime Clock</Description><StartTime><Timestamp dt:dt=""int"">0</Timestamp><DateUtc dt:dt=""string"">2017-10-12T11:24:13Z</DateUtc></StartTime><FrequencyChanges><FrequencyChange><Frequency dt:dt=""r8"">2923154</Frequency><Timestamp dt:dt=""r8"">764139327347</Timestamp><Current dt:dt=""r8"">0</Current><DateUtc dt:dt=""string"">2017-10-12T11:24:13Z</DateUtc></FrequencyChange></FrequencyChanges></Clock>\n",DualSimon(I)-005006-1,59.955,59.955,1.0.0.528,1,-364266468,Professional,2.0.10.353,2.0.10.353,10/12/2017,12/10/2017 11:24,12:24:13,2.0.10.248,1,1,1,1,CM1,List1,3,NULL,NULL,NULL,3,1,3,b1,BlockList4,52,NULL,NULL,NULL,62,2,52,NULL,NULL,NULL,NULL,NULL,NULL,e,e,TrialProc,CM1Trails,blue,blue,w,w,1,e,428,1,e,521
DualSimon(I),5006,1,"<?xml version=""1.0""?>\n<Clock xmlns:dt=""urn:schemas-microsoft-com:datatypes""><Description dt:dt=""string"">E-Prime Primary Realtime Clock</Description><StartTime><Timestamp dt:dt=""int"">0</Timestamp><DateUtc dt:dt=""string"">2017-10-12T11:24:13Z</DateUtc></StartTime><FrequencyChanges><FrequencyChange><Frequency dt:dt=""r8"">2923154</Frequency><Timestamp dt:dt=""r8"">764139327347</Timestamp><Current dt:dt=""r8"">0</Current><DateUtc dt:dt=""string"">2017-10-12T11:24:13Z</DateUtc></FrequencyChange></FrequencyChanges></Clock>\n",DualSimon(I)-005006-1,59.955,59.955,1.0.0.528,1,-364266468,Professional,2.0.10.353,2.0.10.353,10/12/2017,12/10/2017 11:24,12:24:13,2.0.10.248,1,1,1,1,CM1,List1,3,NULL,NULL,NULL,3,1,3,b1,BlockList4,53,NULL,NULL,NULL,70,2,53,NULL,NULL,NULL,NULL,NULL,NULL,w,w,TrialProc,CM1Trails,red,red,e,e,1,w,399,1,w,357
DualSimon(I),5006,1,"<?xml version=""1.0""?>\n<Clock xmlns:dt=""urn:schemas-microsoft-com:datatypes""><Description dt:dt=""string"">E-Prime Primary Realtime Clock</Description><StartTime><Timestamp dt:dt=""int"">0</Timestamp><DateUtc dt:dt=""string"">2017-10-12T11:24:13Z</DateUtc></StartTime><FrequencyChanges><FrequencyChange><Frequency dt:dt=""r8"">2923154</Frequency><Timestamp dt:dt=""r8"">764139327347</Timestamp><Current dt:dt=""r8"">0</Current><DateUtc dt:dt=""string"">2017-10-12T11:24:13Z</DateUtc></FrequencyChange></FrequencyChanges></Clock>\n",DualSimon(I)-005006-1,59.955,59.955,1.0.0.528,1,-364266468,Professional,2.0.10.353,2.0.10.353,10/12/2017,12/10/2017 11:24,12:24:13,2.0.10.248,1,1,1,1,CM1,List1,3,NULL,NULL,NULL,3,1,3,b1,BlockList4,54,NULL,NULL,NULL,39,2,54,NULL,NULL,NULL,NULL,NULL,NULL,e,w,TrialProc,CM1Trails,blue,red,e,w,1,e,462,1,w,405
DualSimon(I),5006,1,"<?xml version=""1.0""?>\n<Clock xmlns:dt=""urn:schemas-microsoft-com:datatypes""><Description dt:dt=""string"">E-Prime Primary Realtime Clock</Description><StartTime><Timestamp dt:dt=""int"">0</Timestamp><DateUtc dt:dt=""string"">2017-10-12T11:24:13Z</DateUtc></StartTime><FrequencyChanges><FrequencyChange><Frequency dt:dt=""r8"">2923154</Frequency><Timestamp dt:dt=""r8"">764139327347</Timestamp><Current dt:dt=""r8"">0</Current><DateUtc dt:dt=""string"">2017-10-12T11:24:13Z</DateUtc></FrequencyChange></FrequencyChanges></Clock>\n",DualSimon(I)-005006-1,59.955,59.955,1.0.0.528,1,-364266468,Professional,2.0.10.353,2.0.10.353,10/12/2017,12/10/2017 11:24,12:24:13,2.0.10.248,1,1,1,1,CM1,List1,3,NULL,NULL,NULL,3,1,3,b1,BlockList4,55,NULL,NULL,NULL,9,2,55,NULL,NULL,NULL,NULL,NULL,NULL,e,e,TrialProc,CM1Trails,blue,blue,e,e,1,e,368,1,e,336
DualSimon(I),5006,1,"<?xml version=""1.0""?>\n<Clock xmlns:dt=""urn:schemas-microsoft-com:datatypes""><Description dt:dt=""string"">E-Prime Primary Realtime Clock</Description><StartTime><Timestamp dt:dt=""int"">0</Timestamp><DateUtc dt:dt=""string"">2017-10-12T11:24:13Z</DateUtc></StartTime><FrequencyChanges><FrequencyChange><Frequency dt:dt=""r8"">2923154</Frequency><Timestamp dt:dt=""r8"">764139327347</Timestamp><Current dt:dt=""r8"">0</Current><DateUtc dt:dt=""string"">2017-10-12T11:24:13Z</DateUtc></FrequencyChange></FrequencyChanges></Clock>\n",DualSimon(I)-005006-1,59.955,59.955,1.0.0.528,1,-364266468,Professional,2.0.10.353,2.0.10.353,10/12/2017,12/10/2017 11:24,12:24:13,2.0.10.248,1,1,1,1,CM1,List1,3,NULL,NULL,NULL,3,1,3,b1,BlockList4,56,NULL,NULL,NULL,27,2,56,NULL,NULL,NULL,NULL,NULL,NULL,w,w,TrialProc,CM1Trails,red,red,w,w,1,w,389,1,w,404
DualSimon(I),5006,1,"<?xml version=""1.0""?>\n<Clock xmlns:dt=""urn:schemas-microsoft-com:datatypes""><Description dt:dt=""string"">E-Prime Primary Realtime Clock</Description><StartTime><Timestamp dt:dt=""int"">0</Timestamp><DateUtc dt:dt=""string"">2017-10-12T11:24:13Z</DateUtc></StartTime><FrequencyChanges><FrequencyChange><Frequency dt:dt=""r8"">2923154</Frequency><Timestamp dt:dt=""r8"">764139327347</Timestamp><Current dt:dt=""r8"">0</Current><DateUtc dt:dt=""string"">2017-10-12T11:24:13Z</DateUtc></FrequencyChange></FrequencyChanges></Clock>\n",DualSimon(I)-005006-1,59.955,59.955,1.0.0.528,1,-364266468,Professional,2.0.10.353,2.0.10.353,10/12/2017,12/10/2017 11:24,12:24:13,2.0.10.248,1,1,1,1,CM1,List1,3,NULL,NULL,NULL,3,1,3,b1,BlockList4,57,NULL,NULL,NULL,67,2,57,NULL,NULL,NULL,NULL,NULL,NULL,w,w,TrialProc,CM1Trails,red,red,e,e,1,w,402,1,w,466
DualSimon(I),5006,1,"<?xml version=""1.0""?>\n<Clock xmlns:dt=""urn:schemas-microsoft-com:datatypes""><Description dt:dt=""string"">E-Prime Primary Realtime Clock</Description><StartTime><Timestamp dt:dt=""int"">0</Timestamp><DateUtc dt:dt=""string"">2017-10-12T11:24:13Z</DateUtc></StartTime><FrequencyChanges><FrequencyChange><Frequency dt:dt=""r8"">2923154</Frequency><Timestamp dt:dt=""r8"">764139327347</Timestamp><Current dt:dt=""r8"">0</Current><DateUtc dt:dt=""string"">2017-10-12T11:24:13Z</DateUtc></FrequencyChange></FrequencyChanges></Clock>\n",DualSimon(I)-005006-1,59.955,59.955,1.0.0.528,1,-364266468,Professional,2.0.10.353,2.0.10.353,10/12/2017,12/10/2017 11:24,12:24:13,2.0.10.248,1,1,1,1,CM1,List1,3,NULL,NULL,NULL,3,1,3,b1,BlockList4,58,NULL,NULL,NULL,15,2,58,NULL,NULL,NULL,NULL,NULL,NULL,e,e,TrialProc,CM1Trails,blue,blue,e,e,1,e,303,1,e,430
DualSimon(I),5006,1,"<?xml version=""1.0""?>\n<Clock xmlns:dt=""urn:schemas-microsoft-com:datatypes""><Description dt:dt=""string"">E-Prime Primary Realtime Clock</Description><StartTime><Timestamp dt:dt=""int"">0</Timestamp><DateUtc dt:dt=""string"">2017-10-12T11:24:13Z</DateUtc></StartTime><FrequencyChanges><FrequencyChange><Frequency dt:dt=""r8"">2923154</Frequency><Timestamp dt:dt=""r8"">764139327347</Timestamp><Current dt:dt=""r8"">0</Current><DateUtc dt:dt=""string"">2017-10-12T11:24:13Z</DateUtc></FrequencyChange></FrequencyChanges></Clock>\n",DualSimon(I)-005006-1,59.955,59.955,1.0.0.528,1,-364266468,Professional,2.0.10.353,2.0.10.353,10/12/2017,12/10/2017 11:24,12:24:13,2.0.10.248,1,1,1,1,CM1,List1,3,NULL,NULL,NULL,3,1,3,b1,BlockList4,59,NULL,NULL,NULL,93,2,59,NULL,NULL,NULL,NULL,NULL,NULL,w,e,TrialProc,CM1Trails,red,blue,e,w,1,w,375,1,e,435
DualSimon(I),5006,1,"<?xml version=""1.0""?>\n<Clock xmlns:dt=""urn:schemas-microsoft-com:datatypes""><Description dt:dt=""string"">E-Prime Primary Realtime Clock</Description><StartTime><Timestamp dt:dt=""int"">0</Timestamp><DateUtc dt:dt=""string"">2017-10-12T11:24:13Z</DateUtc></StartTime><FrequencyChanges><FrequencyChange><Frequency dt:dt=""r8"">2923154</Frequency><Timestamp dt:dt=""r8"">764139327347</Timestamp><Current dt:dt=""r8"">0</Current><DateUtc dt:dt=""string"">2017-10-12T11:24:13Z</DateUtc></FrequencyChange></FrequencyChanges></Clock>\n",DualSimon(I)-005006-1,59.955,59.955,1.0.0.528,1,-364266468,Professional,2.0.10.353,2.0.10.353,10/12/2017,12/10/2017 11:24,12:24:13,2.0.10.248,1,1,1,1,CM1,List1,3,NULL,NULL,NULL,3,1,3,b1,BlockList4,60,NULL,NULL,NULL,5,2,60,NULL,NULL,NULL,NULL,NULL,NULL,e,e,TrialProc,CM1Trails,blue,blue,w,w,1,e,580,1,e,539
DualSimon(I),5006,1,"<?xml version=""1.0""?>\n<Clock xmlns:dt=""urn:schemas-microsoft-com:datatypes""><Description dt:dt=""string"">E-Prime Primary Realtime Clock</Description><StartTime><Timestamp dt:dt=""int"">0</Timestamp><DateUtc dt:dt=""string"">2017-10-12T11:24:13Z</DateUtc></StartTime><FrequencyChanges><FrequencyChange><Frequency dt:dt=""r8"">2923154</Frequency><Timestamp dt:dt=""r8"">764139327347</Timestamp><Current dt:dt=""r8"">0</Current><DateUtc dt:dt=""string"">2017-10-12T11:24:13Z</DateUtc></FrequencyChange></FrequencyChanges></Clock>\n",DualSimon(I)-005006-1,59.955,59.955,1.0.0.528,1,-364266468,Professional,2.0.10.353,2.0.10.353,10/12/2017,12/10/2017 11:24,12:24:13,2.0.10.248,1,1,1,1,CM1,List1,3,NULL,NULL,NULL,3,1,3,b1,BlockList4,61,NULL,NULL,NULL,76,2,61,NULL,NULL,NULL,NULL,NULL,NULL,e,w,TrialProc,CM1Trails,blue,red,w,e,1,e,12308,1,w,461
DualSimon(I),5006,1,"<?xml version=""1.0""?>\n<Clock xmlns:dt=""urn:schemas-microsoft-com:datatypes""><Description dt:dt=""string"">E-Prime Primary Realtime Clock</Description><StartTime><Timestamp dt:dt=""int"">0</Timestamp><DateUtc dt:dt=""string"">2017-10-12T11:24:13Z</DateUtc></StartTime><FrequencyChanges><FrequencyChange><Frequency dt:dt=""r8"">2923154</Frequency><Timestamp dt:dt=""r8"">764139327347</Timestamp><Current dt:dt=""r8"">0</Current><DateUtc dt:dt=""string"">2017-10-12T11:24:13Z</DateUtc></FrequencyChange></FrequencyChanges></Clock>\n",DualSimon(I)-005006-1,59.955,59.955,1.0.0.528,1,-364266468,Professional,2.0.10.353,2.0.10.353,10/12/2017,12/10/2017 11:24,12:24:13,2.0.10.248,1,1,1,1,CM1,List1,3,NULL,NULL,NULL,3,1,3,b1,BlockList4,62,NULL,NULL,NULL,32,2,62,NULL,NULL,NULL,NULL,NULL,NULL,e,w,TrialProc,CM1Trails,blue,red,e,w,1,e,463,1,w,710
DualSimon(I),5006,1,"<?xml version=""1.0""?>\n<Clock xmlns:dt=""urn:schemas-microsoft-com:datatypes""><Description dt:dt=""string"">E-Prime Primary Realtime Clock</Description><StartTime><Timestamp dt:dt=""int"">0</Timestamp><DateUtc dt:dt=""string"">2017-10-12T11:24:13Z</DateUtc></StartTime><FrequencyChanges><FrequencyChange><Frequency dt:dt=""r8"">2923154</Frequency><Timestamp dt:dt=""r8"">764139327347</Timestamp><Current dt:dt=""r8"">0</Current><DateUtc dt:dt=""string"">2017-10-12T11:24:13Z</DateUtc></FrequencyChange></FrequencyChanges></Clock>\n",DualSimon(I)-005006-1,59.955,59.955,1.0.0.528,1,-364266468,Professional,2.0.10.353,2.0.10.353,10/12/2017,12/10/2017 11:24,12:24:13,2.0.10.248,1,1,1,1,CM1,List1,3,NULL,NULL,NULL,3,1,3,b1,BlockList4,63,NULL,NULL,NULL,59,2,63,NULL,NULL,NULL,NULL,NULL,NULL,e,e,TrialProc,CM1Trails,blue,blue,w,w,1,e,386,1,e,599
DualSimon(I),5006,1,"<?xml version=""1.0""?>\n<Clock xmlns:dt=""urn:schemas-microsoft-com:datatypes""><Description dt:dt=""string"">E-Prime Primary Realtime Clock</Description><StartTime><Timestamp dt:dt=""int"">0</Timestamp><DateUtc dt:dt=""string"">2017-10-12T11:24:13Z</DateUtc></StartTime><FrequencyChanges><FrequencyChange><Frequency dt:dt=""r8"">2923154</Frequency><Timestamp dt:dt=""r8"">764139327347</Timestamp><Current dt:dt=""r8"">0</Current><DateUtc dt:dt=""string"">2017-10-12T11:24:13Z</DateUtc></FrequencyChange></FrequencyChanges></Clock>\n",DualSimon(I)-005006-1,59.955,59.955,1.0.0.528,1,-364266468,Professional,2.0.10.353,2.0.10.353,10/12/2017,12/10/2017 11:24,12:24:13,2.0.10.248,1,1,1,1,CM1,List1,3,NULL,NULL,NULL,3,1,3,b1,BlockList4,64,NULL,NULL,NULL,96,2,64,NULL,NULL,NULL,NULL,NULL,NULL,w,e,TrialProc,CM1Trails,red,blue,e,w,1,w,528,1,e,395
DualSimon(I),5006,1,"<?xml version=""1.0""?>\n<Clock xmlns:dt=""urn:schemas-microsoft-com:datatypes""><Description dt:dt=""string"">E-Prime Primary Realtime Clock</Description><StartTime><Timestamp dt:dt=""int"">0</Timestamp><DateUtc dt:dt=""string"">2017-10-12T11:24:13Z</DateUtc></StartTime><FrequencyChanges><FrequencyChange><Frequency dt:dt=""r8"">2923154</Frequency><Timestamp dt:dt=""r8"">764139327347</Timestamp><Current dt:dt=""r8"">0</Current><DateUtc dt:dt=""string"">2017-10-12T11:24:13Z</DateUtc></FrequencyChange></FrequencyChanges></Clock>\n",DualSimon(I)-005006-1,59.955,59.955,1.0.0.528,1,-364266468,Professional,2.0.10.353,2.0.10.353,10/12/2017,12/10/2017 11:24,12:24:13,2.0.10.248,1,1,1,1,CM1,List1,3,NULL,NULL,NULL,3,1,3,b1,BlockList4,65,NULL,NULL,NULL,52,2,65,NULL,NULL,NULL,NULL,NULL,NULL,w,e,TrialProc,CM1Trails,red,blue,w,e,1,w,428,1,e,411
DualSimon(I),5006,1,"<?xml version=""1.0""?>\n<Clock xmlns:dt=""urn:schemas-microsoft-com:datatypes""><Description dt:dt=""string"">E-Prime Primary Realtime Clock</Description><StartTime><Timestamp dt:dt=""int"">0</Timestamp><DateUtc dt:dt=""string"">2017-10-12T11:24:13Z</DateUtc></StartTime><FrequencyChanges><FrequencyChange><Frequency dt:dt=""r8"">2923154</Frequency><Timestamp dt:dt=""r8"">764139327347</Timestamp><Current dt:dt=""r8"">0</Current><DateUtc dt:dt=""string"">2017-10-12T11:24:13Z</DateUtc></FrequencyChange></FrequencyChanges></Clock>\n",DualSimon(I)-005006-1,59.955,59.955,1.0.0.528,1,-364266468,Professional,2.0.10.353,2.0.10.353,10/12/2017,12/10/2017 11:24,12:24:13,2.0.10.248,1,1,1,1,CM1,List1,3,NULL,NULL,NULL,3,1,3,b1,BlockList4,66,NULL,NULL,NULL,42,2,66,NULL,NULL,NULL,NULL,NULL,NULL,w,e,TrialProc,CM1Trails,red,blue,w,e,1,w,351,1,e,380
DualSimon(I),5006,1,"<?xml version=""1.0""?>\n<Clock xmlns:dt=""urn:schemas-microsoft-com:datatypes""><Description dt:dt=""string"">E-Prime Primary Realtime Clock</Description><StartTime><Timestamp dt:dt=""int"">0</Timestamp><DateUtc dt:dt=""string"">2017-10-12T11:24:13Z</DateUtc></StartTime><FrequencyChanges><FrequencyChange><Frequency dt:dt=""r8"">2923154</Frequency><Timestamp dt:dt=""r8"">764139327347</Timestamp><Current dt:dt=""r8"">0</Current><DateUtc dt:dt=""string"">2017-10-12T11:24:13Z</DateUtc></FrequencyChange></FrequencyChanges></Clock>\n",DualSimon(I)-005006-1,59.955,59.955,1.0.0.528,1,-364266468,Professional,2.0.10.353,2.0.10.353,10/12/2017,12/10/2017 11:24,12:24:13,2.0.10.248,1,1,1,1,CM1,List1,3,NULL,NULL,NULL,3,1,3,b1,BlockList4,67,NULL,NULL,NULL,24,2,67,NULL,NULL,NULL,NULL,NULL,NULL,w,w,TrialProc,CM1Trails,red,red,w,w,1,w,380,1,w,306
DualSimon(I),5006,1,"<?xml version=""1.0""?>\n<Clock xmlns:dt=""urn:schemas-microsoft-com:datatypes""><Description dt:dt=""string"">E-Prime Primary Realtime Clock</Description><StartTime><Timestamp dt:dt=""int"">0</Timestamp><DateUtc dt:dt=""string"">2017-10-12T11:24:13Z</DateUtc></StartTime><FrequencyChanges><FrequencyChange><Frequency dt:dt=""r8"">2923154</Frequency><Timestamp dt:dt=""r8"">764139327347</Timestamp><Current dt:dt=""r8"">0</Current><DateUtc dt:dt=""string"">2017-10-12T11:24:13Z</DateUtc></FrequencyChange></FrequencyChanges></Clock>\n",DualSimon(I)-005006-1,59.955,59.955,1.0.0.528,1,-364266468,Professional,2.0.10.353,2.0.10.353,10/12/2017,12/10/2017 11:24,12:24:13,2.0.10.248,1,1,1,1,CM1,List1,3,NULL,NULL,NULL,3,1,3,b1,BlockList4,68,NULL,NULL,NULL,75,2,68,NULL,NULL,NULL,NULL,NULL,NULL,e,w,TrialProc,CM1Trails,blue,red,w,e,1,e,340,1,w,457
DualSimon(I),5006,1,"<?xml version=""1.0""?>\n<Clock xmlns:dt=""urn:schemas-microsoft-com:datatypes""><Description dt:dt=""string"">E-Prime Primary Realtime Clock</Description><StartTime><Timestamp dt:dt=""int"">0</Timestamp><DateUtc dt:dt=""string"">2017-10-12T11:24:13Z</DateUtc></StartTime><FrequencyChanges><FrequencyChange><Frequency dt:dt=""r8"">2923154</Frequency><Timestamp dt:dt=""r8"">764139327347</Timestamp><Current dt:dt=""r8"">0</Current><DateUtc dt:dt=""string"">2017-10-12T11:24:13Z</DateUtc></FrequencyChange></FrequencyChanges></Clock>\n",DualSimon(I)-005006-1,59.955,59.955,1.0.0.528,1,-364266468,Professional,2.0.10.353,2.0.10.353,10/12/2017,12/10/2017 11:24,12:24:13,2.0.10.248,1,1,1,1,CM1,List1,3,NULL,NULL,NULL,3,1,3,b1,BlockList4,69,NULL,NULL,NULL,55,2,69,NULL,NULL,NULL,NULL,NULL,NULL,e,e,TrialProc,CM1Trails,blue,blue,w,w,1,e,420,1,e,436
DualSimon(I),5006,1,"<?xml version=""1.0""?>\n<Clock xmlns:dt=""urn:schemas-microsoft-com:datatypes""><Description dt:dt=""string"">E-Prime Primary Realtime Clock</Description><StartTime><Timestamp dt:dt=""int"">0</Timestamp><DateUtc dt:dt=""string"">2017-10-12T11:24:13Z</DateUtc></StartTime><FrequencyChanges><FrequencyChange><Frequency dt:dt=""r8"">2923154</Frequency><Timestamp dt:dt=""r8"">764139327347</Timestamp><Current dt:dt=""r8"">0</Current><DateUtc dt:dt=""string"">2017-10-12T11:24:13Z</DateUtc></FrequencyChange></FrequencyChanges></Clock>\n",DualSimon(I)-005006-1,59.955,59.955,1.0.0.528,1,-364266468,Professional,2.0.10.353,2.0.10.353,10/12/2017,12/10/2017 11:24,12:24:13,2.0.10.248,1,1,1,1,CM1,List1,3,NULL,NULL,NULL,3,1,3,b1,BlockList4,70,NULL,NULL,NULL,78,2,70,NULL,NULL,NULL,NULL,NULL,NULL,e,w,TrialProc,CM1Trails,blue,red,w,e,1,e,343,1,w,381
DualSimon(I),5006,1,"<?xml version=""1.0""?>\n<Clock xmlns:dt=""urn:schemas-microsoft-com:datatypes""><Description dt:dt=""string"">E-Prime Primary Realtime Clock</Description><StartTime><Timestamp dt:dt=""int"">0</Timestamp><DateUtc dt:dt=""string"">2017-10-12T11:24:13Z</DateUtc></StartTime><FrequencyChanges><FrequencyChange><Frequency dt:dt=""r8"">2923154</Frequency><Timestamp dt:dt=""r8"">764139327347</Timestamp><Current dt:dt=""r8"">0</Current><DateUtc dt:dt=""string"">2017-10-12T11:24:13Z</DateUtc></FrequencyChange></FrequencyChanges></Clock>\n",DualSimon(I)-005006-1,59.955,59.955,1.0.0.528,1,-364266468,Professional,2.0.10.353,2.0.10.353,10/12/2017,12/10/2017 11:24,12:24:13,2.0.10.248,1,1,1,1,CM1,List1,3,NULL,NULL,NULL,3,1,3,b1,BlockList4,71,NULL,NULL,NULL,86,2,71,NULL,NULL,NULL,NULL,NULL,NULL,w,e,TrialProc,CM1Trails,red,blue,e,w,1,w,533,1,e,367
DualSimon(I),5006,1,"<?xml version=""1.0""?>\n<Clock xmlns:dt=""urn:schemas-microsoft-com:datatypes""><Description dt:dt=""string"">E-Prime Primary Realtime Clock</Description><StartTime><Timestamp dt:dt=""int"">0</Timestamp><DateUtc dt:dt=""string"">2017-10-12T11:24:13Z</DateUtc></StartTime><FrequencyChanges><FrequencyChange><Frequency dt:dt=""r8"">2923154</Frequency><Timestamp dt:dt=""r8"">764139327347</Timestamp><Current dt:dt=""r8"">0</Current><DateUtc dt:dt=""string"">2017-10-12T11:24:13Z</DateUtc></FrequencyChange></FrequencyChanges></Clock>\n",DualSimon(I)-005006-1,59.955,59.955,1.0.0.528,1,-364266468,Professional,2.0.10.353,2.0.10.353,10/12/2017,12/10/2017 11:24,12:24:13,2.0.10.248,1,1,1,1,CM1,List1,3,NULL,NULL,NULL,3,1,3,b1,BlockList4,72,NULL,NULL,NULL,38,2,72,NULL,NULL,NULL,NULL,NULL,NULL,e,w,TrialProc,CM1Trails,blue,red,e,w,1,e,339,1,w,467
DualSimon(I),5006,1,"<?xml version=""1.0""?>\n<Clock xmlns:dt=""urn:schemas-microsoft-com:datatypes""><Description dt:dt=""string"">E-Prime Primary Realtime Clock</Description><StartTime><Timestamp dt:dt=""int"">0</Timestamp><DateUtc dt:dt=""string"">2017-10-12T11:24:13Z</DateUtc></StartTime><FrequencyChanges><FrequencyChange><Frequency dt:dt=""r8"">2923154</Frequency><Timestamp dt:dt=""r8"">764139327347</Timestamp><Current dt:dt=""r8"">0</Current><DateUtc dt:dt=""string"">2017-10-12T11:24:13Z</DateUtc></FrequencyChange></FrequencyChanges></Clock>\n",DualSimon(I)-005006-1,59.955,59.955,1.0.0.528,1,-364266468,Professional,2.0.10.353,2.0.10.353,10/12/2017,12/10/2017 11:24,12:24:13,2.0.10.248,1,1,1,1,CM1,List1,3,NULL,NULL,NULL,3,1,3,b1,BlockList4,73,NULL,NULL,NULL,44,2,73,NULL,NULL,NULL,NULL,NULL,NULL,w,e,TrialProc,CM1Trails,red,blue,w,e,1,w,446,1,e,406
DualSimon(I),5006,1,"<?xml version=""1.0""?>\n<Clock xmlns:dt=""urn:schemas-microsoft-com:datatypes""><Description dt:dt=""string"">E-Prime Primary Realtime Clock</Description><StartTime><Timestamp dt:dt=""int"">0</Timestamp><DateUtc dt:dt=""string"">2017-10-12T11:24:13Z</DateUtc></StartTime><FrequencyChanges><FrequencyChange><Frequency dt:dt=""r8"">2923154</Frequency><Timestamp dt:dt=""r8"">764139327347</Timestamp><Current dt:dt=""r8"">0</Current><DateUtc dt:dt=""string"">2017-10-12T11:24:13Z</DateUtc></FrequencyChange></FrequencyChanges></Clock>\n",DualSimon(I)-005006-1,59.955,59.955,1.0.0.528,1,-364266468,Professional,2.0.10.353,2.0.10.353,10/12/2017,12/10/2017 11:24,12:24:13,2.0.10.248,1,1,1,1,CM1,List1,3,NULL,NULL,NULL,3,1,3,b1,BlockList4,74,NULL,NULL,NULL,43,2,74,NULL,NULL,NULL,NULL,NULL,NULL,w,e,TrialProc,CM1Trails,red,blue,w,e,1,w,427,1,e,341
DualSimon(I),5006,1,"<?xml version=""1.0""?>\n<Clock xmlns:dt=""urn:schemas-microsoft-com:datatypes""><Description dt:dt=""string"">E-Prime Primary Realtime Clock</Description><StartTime><Timestamp dt:dt=""int"">0</Timestamp><DateUtc dt:dt=""string"">2017-10-12T11:24:13Z</DateUtc></StartTime><FrequencyChanges><FrequencyChange><Frequency dt:dt=""r8"">2923154</Frequency><Timestamp dt:dt=""r8"">764139327347</Timestamp><Current dt:dt=""r8"">0</Current><DateUtc dt:dt=""string"">2017-10-12T11:24:13Z</DateUtc></FrequencyChange></FrequencyChanges></Clock>\n",DualSimon(I)-005006-1,59.955,59.955,1.0.0.528,1,-364266468,Professional,2.0.10.353,2.0.10.353,10/12/2017,12/10/2017 11:24,12:24:13,2.0.10.248,1,1,1,1,CM1,List1,3,NULL,NULL,NULL,3,1,3,b1,BlockList4,75,NULL,NULL,NULL,82,2,75,NULL,NULL,NULL,NULL,NULL,NULL,e,w,TrialProc,CM1Trails,blue,red,w,e,1,e,339,1,w,424
DualSimon(I),5006,1,"<?xml version=""1.0""?>\n<Clock xmlns:dt=""urn:schemas-microsoft-com:datatypes""><Description dt:dt=""string"">E-Prime Primary Realtime Clock</Description><StartTime><Timestamp dt:dt=""int"">0</Timestamp><DateUtc dt:dt=""string"">2017-10-12T11:24:13Z</DateUtc></StartTime><FrequencyChanges><FrequencyChange><Frequency dt:dt=""r8"">2923154</Frequency><Timestamp dt:dt=""r8"">764139327347</Timestamp><Current dt:dt=""r8"">0</Current><DateUtc dt:dt=""string"">2017-10-12T11:24:13Z</DateUtc></FrequencyChange></FrequencyChanges></Clock>\n",DualSimon(I)-005006-1,59.955,59.955,1.0.0.528,1,-364266468,Professional,2.0.10.353,2.0.10.353,10/12/2017,12/10/2017 11:24,12:24:13,2.0.10.248,1,1,1,1,CM1,List1,3,NULL,NULL,NULL,3,1,3,b1,BlockList4,76,NULL,NULL,NULL,85,2,76,NULL,NULL,NULL,NULL,NULL,NULL,e,w,TrialProc,CM1Trails,blue,red,w,e,1,e,303,1,w,381
DualSimon(I),5006,1,"<?xml version=""1.0""?>\n<Clock xmlns:dt=""urn:schemas-microsoft-com:datatypes""><Description dt:dt=""string"">E-Prime Primary Realtime Clock</Description><StartTime><Timestamp dt:dt=""int"">0</Timestamp><DateUtc dt:dt=""string"">2017-10-12T11:24:13Z</DateUtc></StartTime><FrequencyChanges><FrequencyChange><Frequency dt:dt=""r8"">2923154</Frequency><Timestamp dt:dt=""r8"">764139327347</Timestamp><Current dt:dt=""r8"">0</Current><DateUtc dt:dt=""string"">2017-10-12T11:24:13Z</DateUtc></FrequencyChange></FrequencyChanges></Clock>\n",DualSimon(I)-005006-1,59.955,59.955,1.0.0.528,1,-364266468,Professional,2.0.10.353,2.0.10.353,10/12/2017,12/10/2017 11:24,12:24:13,2.0.10.248,1,1,1,1,CM1,List1,3,NULL,NULL,NULL,3,1,3,b1,BlockList4,77,NULL,NULL,NULL,57,2,77,NULL,NULL,NULL,NULL,NULL,NULL,e,e,TrialProc,CM1Trails,blue,blue,w,w,1,e,313,1,e,414
DualSimon(I),5006,1,"<?xml version=""1.0""?>\n<Clock xmlns:dt=""urn:schemas-microsoft-com:datatypes""><Description dt:dt=""string"">E-Prime Primary Realtime Clock</Description><StartTime><Timestamp dt:dt=""int"">0</Timestamp><DateUtc dt:dt=""string"">2017-10-12T11:24:13Z</DateUtc></StartTime><FrequencyChanges><FrequencyChange><Frequency dt:dt=""r8"">2923154</Frequency><Timestamp dt:dt=""r8"">764139327347</Timestamp><Current dt:dt=""r8"">0</Current><DateUtc dt:dt=""string"">2017-10-12T11:24:13Z</DateUtc></FrequencyChange></FrequencyChanges></Clock>\n",DualSimon(I)-005006-1,59.955,59.955,1.0.0.528,1,-364266468,Professional,2.0.10.353,2.0.10.353,10/12/2017,12/10/2017 11:24,12:24:13,2.0.10.248,1,1,1,1,CM1,List1,3,NULL,NULL,NULL,3,1,3,b1,BlockList4,78,NULL,NULL,NULL,46,2,78,NULL,NULL,NULL,NULL,NULL,NULL,w,e,TrialProc,CM1Trails,red,blue,w,e,1,w,528,1,e,491
DualSimon(I),5006,1,"<?xml version=""1.0""?>\n<Clock xmlns:dt=""urn:schemas-microsoft-com:datatypes""><Description dt:dt=""string"">E-Prime Primary Realtime Clock</Description><StartTime><Timestamp dt:dt=""int"">0</Timestamp><DateUtc dt:dt=""string"">2017-10-12T11:24:13Z</DateUtc></StartTime><FrequencyChanges><FrequencyChange><Frequency dt:dt=""r8"">2923154</Frequency><Timestamp dt:dt=""r8"">764139327347</Timestamp><Current dt:dt=""r8"">0</Current><DateUtc dt:dt=""string"">2017-10-12T11:24:13Z</DateUtc></FrequencyChange></FrequencyChanges></Clock>\n",DualSimon(I)-005006-1,59.955,59.955,1.0.0.528,1,-364266468,Professional,2.0.10.353,2.0.10.353,10/12/2017,12/10/2017 11:24,12:24:13,2.0.10.248,1,1,1,1,CM1,List1,3,NULL,NULL,NULL,3,1,3,b1,BlockList4,79,NULL,NULL,NULL,16,2,79,NULL,NULL,NULL,NULL,NULL,NULL,e,e,TrialProc,CM1Trails,blue,blue,e,e,1,e,384,1,e,425
DualSimon(I),5006,1,"<?xml version=""1.0""?>\n<Clock xmlns:dt=""urn:schemas-microsoft-com:datatypes""><Description dt:dt=""string"">E-Prime Primary Realtime Clock</Description><StartTime><Timestamp dt:dt=""int"">0</Timestamp><DateUtc dt:dt=""string"">2017-10-12T11:24:13Z</DateUtc></StartTime><FrequencyChanges><FrequencyChange><Frequency dt:dt=""r8"">2923154</Frequency><Timestamp dt:dt=""r8"">764139327347</Timestamp><Current dt:dt=""r8"">0</Current><DateUtc dt:dt=""string"">2017-10-12T11:24:13Z</DateUtc></FrequencyChange></FrequencyChanges></Clock>\n",DualSimon(I)-005006-1,59.955,59.955,1.0.0.528,1,-364266468,Professional,2.0.10.353,2.0.10.353,10/12/2017,12/10/2017 11:24,12:24:13,2.0.10.248,1,1,1,1,CM1,List1,3,NULL,NULL,NULL,3,1,3,b1,BlockList4,80,NULL,NULL,NULL,29,2,80,NULL,NULL,NULL,NULL,NULL,NULL,w,w,TrialProc,CM1Trails,red,red,w,w,1,w,319,1,w,334
DualSimon(I),5006,1,"<?xml version=""1.0""?>\n<Clock xmlns:dt=""urn:schemas-microsoft-com:datatypes""><Description dt:dt=""string"">E-Prime Primary Realtime Clock</Description><StartTime><Timestamp dt:dt=""int"">0</Timestamp><DateUtc dt:dt=""string"">2017-10-12T11:24:13Z</DateUtc></StartTime><FrequencyChanges><FrequencyChange><Frequency dt:dt=""r8"">2923154</Frequency><Timestamp dt:dt=""r8"">764139327347</Timestamp><Current dt:dt=""r8"">0</Current><DateUtc dt:dt=""string"">2017-10-12T11:24:13Z</DateUtc></FrequencyChange></FrequencyChanges></Clock>\n",DualSimon(I)-005006-1,59.955,59.955,1.0.0.528,1,-364266468,Professional,2.0.10.353,2.0.10.353,10/12/2017,12/10/2017 11:24,12:24:13,2.0.10.248,1,1,1,1,CM1,List1,3,NULL,NULL,NULL,3,1,3,b1,BlockList4,81,NULL,NULL,NULL,21,2,81,NULL,NULL,NULL,NULL,NULL,NULL,w,w,TrialProc,CM1Trails,red,red,w,w,1,w,360,1,w,400
DualSimon(I),5006,1,"<?xml version=""1.0""?>\n<Clock xmlns:dt=""urn:schemas-microsoft-com:datatypes""><Description dt:dt=""string"">E-Prime Primary Realtime Clock</Description><StartTime><Timestamp dt:dt=""int"">0</Timestamp><DateUtc dt:dt=""string"">2017-10-12T11:24:13Z</DateUtc></StartTime><FrequencyChanges><FrequencyChange><Frequency dt:dt=""r8"">2923154</Frequency><Timestamp dt:dt=""r8"">764139327347</Timestamp><Current dt:dt=""r8"">0</Current><DateUtc dt:dt=""string"">2017-10-12T11:24:13Z</DateUtc></FrequencyChange></FrequencyChanges></Clock>\n",DualSimon(I)-005006-1,59.955,59.955,1.0.0.528,1,-364266468,Professional,2.0.10.353,2.0.10.353,10/12/2017,12/10/2017 11:24,12:24:13,2.0.10.248,1,1,1,1,CM1,List1,3,NULL,NULL,NULL,3,1,3,b1,BlockList4,82,NULL,NULL,NULL,35,2,82,NULL,NULL,NULL,NULL,NULL,NULL,e,w,TrialProc,CM1Trails,blue,red,e,w,1,e,269,1,w,348
DualSimon(I),5006,1,"<?xml version=""1.0""?>\n<Clock xmlns:dt=""urn:schemas-microsoft-com:datatypes""><Description dt:dt=""string"">E-Prime Primary Realtime Clock</Description><StartTime><Timestamp dt:dt=""int"">0</Timestamp><DateUtc dt:dt=""string"">2017-10-12T11:24:13Z</DateUtc></StartTime><FrequencyChanges><FrequencyChange><Frequency dt:dt=""r8"">2923154</Frequency><Timestamp dt:dt=""r8"">764139327347</Timestamp><Current dt:dt=""r8"">0</Current><DateUtc dt:dt=""string"">2017-10-12T11:24:13Z</DateUtc></FrequencyChange></FrequencyChanges></Clock>\n",DualSimon(I)-005006-1,59.955,59.955,1.0.0.528,1,-364266468,Professional,2.0.10.353,2.0.10.353,10/12/2017,12/10/2017 11:24,12:24:13,2.0.10.248,1,1,1,1,CM1,List1,3,NULL,NULL,NULL,3,1,3,b1,BlockList4,83,NULL,NULL,NULL,31,2,83,NULL,NULL,NULL,NULL,NULL,NULL,e,w,TrialProc,CM1Trails,blue,red,e,w,1,e,349,1,w,387
DualSimon(I),5006,1,"<?xml version=""1.0""?>\n<Clock xmlns:dt=""urn:schemas-microsoft-com:datatypes""><Description dt:dt=""string"">E-Prime Primary Realtime Clock</Description><StartTime><Timestamp dt:dt=""int"">0</Timestamp><DateUtc dt:dt=""string"">2017-10-12T11:24:13Z</DateUtc></StartTime><FrequencyChanges><FrequencyChange><Frequency dt:dt=""r8"">2923154</Frequency><Timestamp dt:dt=""r8"">764139327347</Timestamp><Current dt:dt=""r8"">0</Current><DateUtc dt:dt=""string"">2017-10-12T11:24:13Z</DateUtc></FrequencyChange></FrequencyChanges></Clock>\n",DualSimon(I)-005006-1,59.955,59.955,1.0.0.528,1,-364266468,Professional,2.0.10.353,2.0.10.353,10/12/2017,12/10/2017 11:24,12:24:13,2.0.10.248,1,1,1,1,CM1,List1,3,NULL,NULL,NULL,3,1,3,b1,BlockList4,84,NULL,NULL,NULL,47,2,84,NULL,NULL,NULL,NULL,NULL,NULL,w,e,TrialProc,CM1Trails,red,blue,w,e,1,w,294,1,e,328
DualSimon(I),5006,1,"<?xml version=""1.0""?>\n<Clock xmlns:dt=""urn:schemas-microsoft-com:datatypes""><Description dt:dt=""string"">E-Prime Primary Realtime Clock</Description><StartTime><Timestamp dt:dt=""int"">0</Timestamp><DateUtc dt:dt=""string"">2017-10-12T11:24:13Z</DateUtc></StartTime><FrequencyChanges><FrequencyChange><Frequency dt:dt=""r8"">2923154</Frequency><Timestamp dt:dt=""r8"">764139327347</Timestamp><Current dt:dt=""r8"">0</Current><DateUtc dt:dt=""string"">2017-10-12T11:24:13Z</DateUtc></FrequencyChange></FrequencyChanges></Clock>\n",DualSimon(I)-005006-1,59.955,59.955,1.0.0.528,1,-364266468,Professional,2.0.10.353,2.0.10.353,10/12/2017,12/10/2017 11:24,12:24:13,2.0.10.248,1,1,1,1,CM1,List1,3,NULL,NULL,NULL,3,1,3,b1,BlockList4,85,NULL,NULL,NULL,45,2,85,NULL,NULL,NULL,NULL,NULL,NULL,w,e,TrialProc,CM1Trails,red,blue,w,e,1,w,339,1,e,373
DualSimon(I),5006,1,"<?xml version=""1.0""?>\n<Clock xmlns:dt=""urn:schemas-microsoft-com:datatypes""><Description dt:dt=""string"">E-Prime Primary Realtime Clock</Description><StartTime><Timestamp dt:dt=""int"">0</Timestamp><DateUtc dt:dt=""string"">2017-10-12T11:24:13Z</DateUtc></StartTime><FrequencyChanges><FrequencyChange><Frequency dt:dt=""r8"">2923154</Frequency><Timestamp dt:dt=""r8"">764139327347</Timestamp><Current dt:dt=""r8"">0</Current><DateUtc dt:dt=""string"">2017-10-12T11:24:13Z</DateUtc></FrequencyChange></FrequencyChanges></Clock>\n",DualSimon(I)-005006-1,59.955,59.955,1.0.0.528,1,-364266468,Professional,2.0.10.353,2.0.10.353,10/12/2017,12/10/2017 11:24,12:24:13,2.0.10.248,1,1,1,1,CM1,List1,3,NULL,NULL,NULL,3,1,3,b1,BlockList4,86,NULL,NULL,NULL,25,2,86,NULL,NULL,NULL,NULL,NULL,NULL,w,w,TrialProc,CM1Trails,red,red,w,w,1,w,386,1,w,352
DualSimon(I),5006,1,"<?xml version=""1.0""?>\n<Clock xmlns:dt=""urn:schemas-microsoft-com:datatypes""><Description dt:dt=""string"">E-Prime Primary Realtime Clock</Description><StartTime><Timestamp dt:dt=""int"">0</Timestamp><DateUtc dt:dt=""string"">2017-10-12T11:24:13Z</DateUtc></StartTime><FrequencyChanges><FrequencyChange><Frequency dt:dt=""r8"">2923154</Frequency><Timestamp dt:dt=""r8"">764139327347</Timestamp><Current dt:dt=""r8"">0</Current><DateUtc dt:dt=""string"">2017-10-12T11:24:13Z</DateUtc></FrequencyChange></FrequencyChanges></Clock>\n",DualSimon(I)-005006-1,59.955,59.955,1.0.0.528,1,-364266468,Professional,2.0.10.353,2.0.10.353,10/12/2017,12/10/2017 11:24,12:24:13,2.0.10.248,1,1,1,1,CM1,List1,3,NULL,NULL,NULL,3,1,3,b1,BlockList4,87,NULL,NULL,NULL,40,2,87,NULL,NULL,NULL,NULL,NULL,NULL,e,w,TrialProc,CM1Trails,blue,red,e,w,1,e,277,1,w,445
DualSimon(I),5006,1,"<?xml version=""1.0""?>\n<Clock xmlns:dt=""urn:schemas-microsoft-com:datatypes""><Description dt:dt=""string"">E-Prime Primary Realtime Clock</Description><StartTime><Timestamp dt:dt=""int"">0</Timestamp><DateUtc dt:dt=""string"">2017-10-12T11:24:13Z</DateUtc></StartTime><FrequencyChanges><FrequencyChange><Frequency dt:dt=""r8"">2923154</Frequency><Timestamp dt:dt=""r8"">764139327347</Timestamp><Current dt:dt=""r8"">0</Current><DateUtc dt:dt=""string"">2017-10-12T11:24:13Z</DateUtc></FrequencyChange></FrequencyChanges></Clock>\n",DualSimon(I)-005006-1,59.955,59.955,1.0.0.528,1,-364266468,Professional,2.0.10.353,2.0.10.353,10/12/2017,12/10/2017 11:24,12:24:13,2.0.10.248,1,1,1,1,CM1,List1,3,NULL,NULL,NULL,3,1,3,b1,BlockList4,88,NULL,NULL,NULL,80,2,88,NULL,NULL,NULL,NULL,NULL,NULL,e,w,TrialProc,CM1Trails,blue,red,w,e,1,e,452,1,w,449
DualSimon(I),5006,1,"<?xml version=""1.0""?>\n<Clock xmlns:dt=""urn:schemas-microsoft-com:datatypes""><Description dt:dt=""string"">E-Prime Primary Realtime Clock</Description><StartTime><Timestamp dt:dt=""int"">0</Timestamp><DateUtc dt:dt=""string"">2017-10-12T11:24:13Z</DateUtc></StartTime><FrequencyChanges><FrequencyChange><Frequency dt:dt=""r8"">2923154</Frequency><Timestamp dt:dt=""r8"">764139327347</Timestamp><Current dt:dt=""r8"">0</Current><DateUtc dt:dt=""string"">2017-10-12T11:24:13Z</DateUtc></FrequencyChange></FrequencyChanges></Clock>\n",DualSimon(I)-005006-1,59.955,59.955,1.0.0.528,1,-364266468,Professional,2.0.10.353,2.0.10.353,10/12/2017,12/10/2017 11:24,12:24:13,2.0.10.248,1,1,1,1,CM1,List1,3,NULL,NULL,NULL,3,1,3,b1,BlockList4,89,NULL,NULL,NULL,64,2,89,NULL,NULL,NULL,NULL,NULL,NULL,w,w,TrialProc,CM1Trails,red,red,e,e,1,w,461,1,w,557
DualSimon(I),5006,1,"<?xml version=""1.0""?>\n<Clock xmlns:dt=""urn:schemas-microsoft-com:datatypes""><Description dt:dt=""string"">E-Prime Primary Realtime Clock</Description><StartTime><Timestamp dt:dt=""int"">0</Timestamp><DateUtc dt:dt=""string"">2017-10-12T11:24:13Z</DateUtc></StartTime><FrequencyChanges><FrequencyChange><Frequency dt:dt=""r8"">2923154</Frequency><Timestamp dt:dt=""r8"">764139327347</Timestamp><Current dt:dt=""r8"">0</Current><DateUtc dt:dt=""string"">2017-10-12T11:24:13Z</DateUtc></FrequencyChange></FrequencyChanges></Clock>\n",DualSimon(I)-005006-1,59.955,59.955,1.0.0.528,1,-364266468,Professional,2.0.10.353,2.0.10.353,10/12/2017,12/10/2017 11:24,12:24:13,2.0.10.248,1,1,1,1,CM1,List1,3,NULL,NULL,NULL,3,1,3,b1,BlockList4,90,NULL,NULL,NULL,68,2,90,NULL,NULL,NULL,NULL,NULL,NULL,w,w,TrialProc,CM1Trails,red,red,e,e,1,w,350,1,w,397
DualSimon(I),5006,1,"<?xml version=""1.0""?>\n<Clock xmlns:dt=""urn:schemas-microsoft-com:datatypes""><Description dt:dt=""string"">E-Prime Primary Realtime Clock</Description><StartTime><Timestamp dt:dt=""int"">0</Timestamp><DateUtc dt:dt=""string"">2017-10-12T11:24:13Z</DateUtc></StartTime><FrequencyChanges><FrequencyChange><Frequency dt:dt=""r8"">2923154</Frequency><Timestamp dt:dt=""r8"">764139327347</Timestamp><Current dt:dt=""r8"">0</Current><DateUtc dt:dt=""string"">2017-10-12T11:24:13Z</DateUtc></FrequencyChange></FrequencyChanges></Clock>\n",DualSimon(I)-005006-1,59.955,59.955,1.0.0.528,1,-364266468,Professional,2.0.10.353,2.0.10.353,10/12/2017,12/10/2017 11:24,12:24:13,2.0.10.248,1,1,1,1,CM1,List1,3,NULL,NULL,NULL,3,1,3,b1,BlockList4,91,NULL,NULL,NULL,73,2,91,NULL,NULL,NULL,NULL,NULL,NULL,w,w,TrialProc,CM1Trails,red,red,e,e,1,w,354,1,w,336
DualSimon(I),5006,1,"<?xml version=""1.0""?>\n<Clock xmlns:dt=""urn:schemas-microsoft-com:datatypes""><Description dt:dt=""string"">E-Prime Primary Realtime Clock</Description><StartTime><Timestamp dt:dt=""int"">0</Timestamp><DateUtc dt:dt=""string"">2017-10-12T11:24:13Z</DateUtc></StartTime><FrequencyChanges><FrequencyChange><Frequency dt:dt=""r8"">2923154</Frequency><Timestamp dt:dt=""r8"">764139327347</Timestamp><Current dt:dt=""r8"">0</Current><DateUtc dt:dt=""string"">2017-10-12T11:24:13Z</DateUtc></FrequencyChange></FrequencyChanges></Clock>\n",DualSimon(I)-005006-1,59.955,59.955,1.0.0.528,1,-364266468,Professional,2.0.10.353,2.0.10.353,10/12/2017,12/10/2017 11:24,12:24:13,2.0.10.248,1,1,1,1,CM1,List1,3,NULL,NULL,NULL,3,1,3,b1,BlockList4,92,NULL,NULL,NULL,69,2,92,NULL,NULL,NULL,NULL,NULL,NULL,w,w,TrialProc,CM1Trails,red,red,e,e,1,w,369,1,w,435
DualSimon(I),5006,1,"<?xml version=""1.0""?>\n<Clock xmlns:dt=""urn:schemas-microsoft-com:datatypes""><Description dt:dt=""string"">E-Prime Primary Realtime Clock</Description><StartTime><Timestamp dt:dt=""int"">0</Timestamp><DateUtc dt:dt=""string"">2017-10-12T11:24:13Z</DateUtc></StartTime><FrequencyChanges><FrequencyChange><Frequency dt:dt=""r8"">2923154</Frequency><Timestamp dt:dt=""r8"">764139327347</Timestamp><Current dt:dt=""r8"">0</Current><DateUtc dt:dt=""string"">2017-10-12T11:24:13Z</DateUtc></FrequencyChange></FrequencyChanges></Clock>\n",DualSimon(I)-005006-1,59.955,59.955,1.0.0.528,1,-364266468,Professional,2.0.10.353,2.0.10.353,10/12/2017,12/10/2017 11:24,12:24:13,2.0.10.248,1,1,1,1,CM1,List1,3,NULL,NULL,NULL,3,1,3,b1,BlockList4,93,NULL,NULL,NULL,26,2,93,NULL,NULL,NULL,NULL,NULL,NULL,w,w,TrialProc,CM1Trails,red,red,w,w,1,w,345,1,w,410
DualSimon(I),5006,1,"<?xml version=""1.0""?>\n<Clock xmlns:dt=""urn:schemas-microsoft-com:datatypes""><Description dt:dt=""string"">E-Prime Primary Realtime Clock</Description><StartTime><Timestamp dt:dt=""int"">0</Timestamp><DateUtc dt:dt=""string"">2017-10-12T11:24:13Z</DateUtc></StartTime><FrequencyChanges><FrequencyChange><Frequency dt:dt=""r8"">2923154</Frequency><Timestamp dt:dt=""r8"">764139327347</Timestamp><Current dt:dt=""r8"">0</Current><DateUtc dt:dt=""string"">2017-10-12T11:24:13Z</DateUtc></FrequencyChange></FrequencyChanges></Clock>\n",DualSimon(I)-005006-1,59.955,59.955,1.0.0.528,1,-364266468,Professional,2.0.10.353,2.0.10.353,10/12/2017,12/10/2017 11:24,12:24:13,2.0.10.248,1,1,1,1,CM1,List1,3,NULL,NULL,NULL,3,1,3,b1,BlockList4,94,NULL,NULL,NULL,90,2,94,NULL,NULL,NULL,NULL,NULL,NULL,w,e,TrialProc,CM1Trails,red,blue,e,w,1,w,452,1,e,519
DualSimon(I),5006,1,"<?xml version=""1.0""?>\n<Clock xmlns:dt=""urn:schemas-microsoft-com:datatypes""><Description dt:dt=""string"">E-Prime Primary Realtime Clock</Description><StartTime><Timestamp dt:dt=""int"">0</Timestamp><DateUtc dt:dt=""string"">2017-10-12T11:24:13Z</DateUtc></StartTime><FrequencyChanges><FrequencyChange><Frequency dt:dt=""r8"">2923154</Frequency><Timestamp dt:dt=""r8"">764139327347</Timestamp><Current dt:dt=""r8"">0</Current><DateUtc dt:dt=""string"">2017-10-12T11:24:13Z</DateUtc></FrequencyChange></FrequencyChanges></Clock>\n",DualSimon(I)-005006-1,59.955,59.955,1.0.0.528,1,-364266468,Professional,2.0.10.353,2.0.10.353,10/12/2017,12/10/2017 11:24,12:24:13,2.0.10.248,1,1,1,1,CM1,List1,3,NULL,NULL,NULL,3,1,3,b1,BlockList4,95,NULL,NULL,NULL,87,2,95,NULL,NULL,NULL,NULL,NULL,NULL,w,e,TrialProc,CM1Trails,red,blue,e,w,0,e,584,1,e,395
DualSimon(I),5006,1,"<?xml version=""1.0""?>\n<Clock xmlns:dt=""urn:schemas-microsoft-com:datatypes""><Description dt:dt=""string"">E-Prime Primary Realtime Clock</Description><StartTime><Timestamp dt:dt=""int"">0</Timestamp><DateUtc dt:dt=""string"">2017-10-12T11:24:13Z</DateUtc></StartTime><FrequencyChanges><FrequencyChange><Frequency dt:dt=""r8"">2923154</Frequency><Timestamp dt:dt=""r8"">764139327347</Timestamp><Current dt:dt=""r8"">0</Current><DateUtc dt:dt=""string"">2017-10-12T11:24:13Z</DateUtc></FrequencyChange></FrequencyChanges></Clock>\n",DualSimon(I)-005006-1,59.955,59.955,1.0.0.528,1,-364266468,Professional,2.0.10.353,2.0.10.353,10/12/2017,12/10/2017 11:24,12:24:13,2.0.10.248,1,1,1,1,CM1,List1,3,NULL,NULL,NULL,3,1,3,b1,BlockList4,96,NULL,NULL,NULL,41,2,96,NULL,NULL,NULL,NULL,NULL,NULL,e,w,TrialProc,CM1Trails,blue,red,e,w,1,e,314,1,w,502
DualSimon(I),5006,1,"<?xml version=""1.0""?>\n<Clock xmlns:dt=""urn:schemas-microsoft-com:datatypes""><Description dt:dt=""string"">E-Prime Primary Realtime Clock</Description><StartTime><Timestamp dt:dt=""int"">0</Timestamp><DateUtc dt:dt=""string"">2017-10-12T11:24:13Z</DateUtc></StartTime><FrequencyChanges><FrequencyChange><Frequency dt:dt=""r8"">2923154</Frequency><Timestamp dt:dt=""r8"">764139327347</Timestamp><Current dt:dt=""r8"">0</Current><DateUtc dt:dt=""string"">2017-10-12T11:24:13Z</DateUtc></FrequencyChange></FrequencyChanges></Clock>\n",DualSimon(I)-005006-1,59.955,59.955,1.0.0.528,1,-364266468,Professional,2.0.10.353,2.0.10.353,10/12/2017,12/10/2017 11:24,12:24:13,2.0.10.248,2,2,1,2,CM2,List1,1,1,1,1,NULL,NULL,NULL,CM2PracTrial,BlockList2,1,NULL,NULL,NULL,NULL,NULL,NULL,9,2,1,NULL,NULL,NULL,w,e,TrialProc7,CM2PracTrials,blue,red,e,w,1,w,373,1,e,428
