ExperimentName,Subject,Session,Clock.Information,DataFile.Basename,Display1.RefreshRate,Display2.RefreshRate,ExperimentVersion,Group,RandomSeed,RuntimeCapabilities,RuntimeVersion,RuntimeVersionExpected,SessionDate,SessionStartDateTimeUtc,SessionTime,StudioVersion,Block,List1,List1.Cycle,List1.Sample,Procedure[Block],Running[Block],Trial,BlockList2,BlockList2.Cycle,BlockList2.Sample,BlockList4,BlockList4.Cycle,BlockList4.Sample,Procedure[Trial],Running[Trial],SubTrial,CM1PracTrails1,CM1PracTrails1.Cycle,CM1PracTrails1.Sample,CM1Trails,CM1Trails.Cycle,CM1Trails.Sample,CM2PracTrials,CM2PracTrials.Cycle,CM2PracTrials.Sample,CM2Trials,CM2Trials.Cycle,CM2Trials.Sample,CorrectSubj1,CorrectSubj2,Procedure[SubTrial],Running[SubTrial],Screen1_Obj_Colour,Screen2_Obj_Colour,Screen_1_Obj_Pos,Screen_2_Obj_Pos,Subject1ACC,Subject1RESP,Subject1RT,Subject2ACC,Subject2RESP,Subject2RT
DualSimon,1002,1,"<?xml version=""1.0""?>\n<Clock xmlns:dt=""urn:schemas-microsoft-com:datatypes""><Description dt:dt=""string"">E-Prime Primary Realtime Clock</Description><StartTime><Timestamp dt:dt=""int"">0</Timestamp><DateUtc dt:dt=""string"">2017-10-09T11:47:04Z</DateUtc></StartTime><FrequencyChanges><FrequencyChange><Frequency dt:dt=""r8"">2923154</Frequency><Timestamp dt:dt=""r8"">10525532348</Timestamp><Current dt:dt=""r8"">0</Current><DateUtc dt:dt=""string"">2017-10-09T11:47:04Z</DateUtc></FrequencyChange></FrequencyChanges></Clock>\n",DualSimon-001002-1,59.955,59.955,1.0.0.505,1,1936161497,Professional,2.0.10.353,2.0.10.353,10/09/2017,09/10/2017 11:47,12:47:04,2.0.10.248,1,1,1,1,CM1,List1,1,NULL,NULL,NULL,1,1,1,CM1Prac,BlockList4,1,15,2,1,NULL,NULL,NULL,NULL,NULL,NULL,NULL,NULL,NULL,e,w,TrialProc2,CM1PracTrails1,blue,red,w,e,1,e,1009,1,w,479
DualSimon,1002,1,"<?xml version=""1.0""?>\n<Clock xmlns:dt=""urn:schemas-microsoft-com:datatypes""><Description dt:dt=""string"">E-Prime Primary Realtime Clock</Description><StartTime><Timestamp dt:dt=""int"">0</Timestamp><DateUtc dt:dt=""string"">2017-10-09T11:47:04Z</DateUtc></StartTime><FrequencyChanges><FrequencyChange><Frequency dt:dt=""r8"">2923154</Frequency><Timestamp dt:dt=""r8"">10525532348</Timestamp><Current dt:dt=""r8"">0</Current><DateUtc dt:dt=""string"">2017-10-09T11:47:04Z</DateUtc></FrequencyChange></FrequencyChanges></Clock>\n",DualSimon-001002-1,59.955,59.955,1.0.0.505,1,1936161497,Professional,2.0.10.353,2.0.10.353,10/09/2017,09/10/2017 11:47,12:47:04,2.0.10.248,1,1,1,1,CM1,List1,1,NULL,NULL,NULL,1,1,1,CM1Prac,BlockList4,2,8,2,2,NULL,NULL,NULL,NULL,NULL,NULL,NULL,NULL,NULL,w,e,TrialProc2,CM1PracTrails1,red,blue,e,w,1,w,341,1,e,492
DualSimon,1002,1,"<?xml version=""1.0""?>\n<Clock xmlns:dt=""urn:schemas-microsoft-com:datatypes""><Description dt:dt=""string"">E-Prime Primary Realtime Clock</Description><StartTime><Timestamp dt:dt=""int"">0</Timestamp><DateUtc dt:dt=""string"">2017-10-09T11:47:04Z</DateUtc></StartTime><FrequencyChanges><FrequencyChange><Frequency dt:dt=""r8"">2923154</Frequency><Timestamp dt:dt=""r8"">10525532348</Timestamp><Current dt:dt=""r8"">0</Current><DateUtc dt:dt=""string"">2017-10-09T11:47:04Z</DateUtc></FrequencyChange></FrequencyChanges></Clock>\n",DualSimon-001002-1,59.955,59.955,1.0.0.505,1,1936161497,Professional,2.0.10.353,2.0.10.353,10/09/2017,09/10/2017 11:47,12:47:04,2.0.10.248,1,1,1,1,CM1,List1,1,NULL,NULL,NULL,1,1,1,CM1Prac,BlockList4,3,12,2,3,NULL,NULL,NULL,NULL,NULL,NULL,NULL,NULL,NULL,w,e,TrialProc2,CM1PracTrails1,red,blue,w,e,1,w,639,1,e,369
DualSimon,1002,1,"<?xml version=""1.0""?>\n<Clock xmlns:dt=""urn:schemas-microsoft-com:datatypes""><Description dt:dt=""string"">E-Prime Primary Realtime Clock</Description><StartTime><Timestamp dt:dt=""int"">0</Timestamp><DateUtc dt:dt=""string"">2017-10-09T11:47:04Z</DateUtc></StartTime><FrequencyChanges><FrequencyChange><Frequency dt:dt=""r8"">2923154</Frequency><Timestamp dt:dt=""r8"">10525532348</Timestamp><Current dt:dt=""r8"">0</Current><DateUtc dt:dt=""string"">2017-10-09T11:47:04Z</DateUtc></FrequencyChange></FrequencyChanges></Clock>\n",DualSimon-001002-1,59.955,59.955,1.0.0.505,1,1936161497,Professional,2.0.10.353,2.0.10.353,10/09/2017,09/10/2017 11:47,12:47:04,2.0.10.248,1,1,1,1,CM1,List1,1,NULL,NULL,NULL,1,1,1,CM1Prac,BlockList4,4,3,2,4,NULL,NULL,NULL,NULL,NULL,NULL,NULL,NULL,NULL,e,w,TrialProc2,CM1PracTrails1,blue,red,e,w,1,e,530,1,w,335
DualSimon,1002,1,"<?xml version=""1.0""?>\n<Clock xmlns:dt=""urn:schemas-microsoft-com:datatypes""><Description dt:dt=""string"">E-Prime Primary Realtime Clock</Description><StartTime><Timestamp dt:dt=""int"">0</Timestamp><DateUtc dt:dt=""string"">2017-10-09T11:47:04Z</DateUtc></StartTime><FrequencyChanges><FrequencyChange><Frequency dt:dt=""r8"">2923154</Frequency><Timestamp dt:dt=""r8"">10525532348</Timestamp><Current dt:dt=""r8"">0</Current><DateUtc dt:dt=""string"">2017-10-09T11:47:04Z</DateUtc></FrequencyChange></FrequencyChanges></Clock>\n",DualSimon-001002-1,59.955,59.955,1.0.0.505,1,1936161497,Professional,2.0.10.353,2.0.10.353,10/09/2017,09/10/2017 11:47,12:47:04,2.0.10.248,1,1,1,1,CM1,List1,1,NULL,NULL,NULL,1,1,1,CM1Prac,BlockList4,5,11,2,5,NULL,NULL,NULL,NULL,NULL,NULL,NULL,NULL,NULL,e,w,TrialProc2,CM1PracTrails1,blue,red,e,w,1,e,515,1,w,349
DualSimon,1002,1,"<?xml version=""1.0""?>\n<Clock xmlns:dt=""urn:schemas-microsoft-com:datatypes""><Description dt:dt=""string"">E-Prime Primary Realtime Clock</Description><StartTime><Timestamp dt:dt=""int"">0</Timestamp><DateUtc dt:dt=""string"">2017-10-09T11:47:04Z</DateUtc></StartTime><FrequencyChanges><FrequencyChange><Frequency dt:dt=""r8"">2923154</Frequency><Timestamp dt:dt=""r8"">10525532348</Timestamp><Current dt:dt=""r8"">0</Current><DateUtc dt:dt=""string"">2017-10-09T11:47:04Z</DateUtc></FrequencyChange></FrequencyChanges></Clock>\n",DualSimon-001002-1,59.955,59.955,1.0.0.505,1,1936161497,Professional,2.0.10.353,2.0.10.353,10/09/2017,09/10/2017 11:47,12:47:04,2.0.10.248,1,1,1,1,CM1,List1,1,NULL,NULL,NULL,1,1,1,CM1Prac,BlockList4,6,1,2,6,NULL,NULL,NULL,NULL,NULL,NULL,NULL,NULL,NULL,e,e,TrialProc2,CM1PracTrails1,blue,blue,e,e,1,e,370,1,e,339
DualSimon,1002,1,"<?xml version=""1.0""?>\n<Clock xmlns:dt=""urn:schemas-microsoft-com:datatypes""><Description dt:dt=""string"">E-Prime Primary Realtime Clock</Description><StartTime><Timestamp dt:dt=""int"">0</Timestamp><DateUtc dt:dt=""string"">2017-10-09T11:47:04Z</DateUtc></StartTime><FrequencyChanges><FrequencyChange><Frequency dt:dt=""r8"">2923154</Frequency><Timestamp dt:dt=""r8"">10525532348</Timestamp><Current dt:dt=""r8"">0</Current><DateUtc dt:dt=""string"">2017-10-09T11:47:04Z</DateUtc></FrequencyChange></FrequencyChanges></Clock>\n",DualSimon-001002-1,59.955,59.955,1.0.0.505,1,1936161497,Professional,2.0.10.353,2.0.10.353,10/09/2017,09/10/2017 11:47,12:47:04,2.0.10.248,1,1,1,1,CM1,List1,1,NULL,NULL,NULL,1,1,1,CM1Prac,BlockList4,7,16,2,7,NULL,NULL,NULL,NULL,NULL,NULL,NULL,NULL,NULL,w,e,TrialProc2,CM1PracTrails1,red,blue,e,w,1,w,497,1,e,419
DualSimon,1002,1,"<?xml version=""1.0""?>\n<Clock xmlns:dt=""urn:schemas-microsoft-com:datatypes""><Description dt:dt=""string"">E-Prime Primary Realtime Clock</Description><StartTime><Timestamp dt:dt=""int"">0</Timestamp><DateUtc dt:dt=""string"">2017-10-09T11:47:04Z</DateUtc></StartTime><FrequencyChanges><FrequencyChange><Frequency dt:dt=""r8"">2923154</Frequency><Timestamp dt:dt=""r8"">10525532348</Timestamp><Current dt:dt=""r8"">0</Current><DateUtc dt:dt=""string"">2017-10-09T11:47:04Z</DateUtc></FrequencyChange></FrequencyChanges></Clock>\n",DualSimon-001002-1,59.955,59.955,1.0.0.505,1,1936161497,Professional,2.0.10.353,2.0.10.353,10/09/2017,09/10/2017 11:47,12:47:04,2.0.10.248,1,1,1,1,CM1,List1,1,NULL,NULL,NULL,1,1,1,CM1Prac,BlockList4,8,14,2,8,NULL,NULL,NULL,NULL,NULL,NULL,NULL,NULL,NULL,w,w,TrialProc2,CM1PracTrails1,red,red,e,e,1,w,516,1,w,576
DualSimon,1002,1,"<?xml version=""1.0""?>\n<Clock xmlns:dt=""urn:schemas-microsoft-com:datatypes""><Description dt:dt=""string"">E-Prime Primary Realtime Clock</Description><StartTime><Timestamp dt:dt=""int"">0</Timestamp><DateUtc dt:dt=""string"">2017-10-09T11:47:04Z</DateUtc></StartTime><FrequencyChanges><FrequencyChange><Frequency dt:dt=""r8"">2923154</Frequency><Timestamp dt:dt=""r8"">10525532348</Timestamp><Current dt:dt=""r8"">0</Current><DateUtc dt:dt=""string"">2017-10-09T11:47:04Z</DateUtc></FrequencyChange></FrequencyChanges></Clock>\n",DualSimon-001002-1,59.955,59.955,1.0.0.505,1,1936161497,Professional,2.0.10.353,2.0.10.353,10/09/2017,09/10/2017 11:47,12:47:04,2.0.10.248,1,1,1,1,CM1,List1,1,NULL,NULL,NULL,1,1,1,CM1Prac,BlockList4,9,2,2,9,NULL,NULL,NULL,NULL,NULL,NULL,NULL,NULL,NULL,w,w,TrialProc2,CM1PracTrails1,red,red,w,w,1,w,352,1,w,441
DualSimon,1002,1,"<?xml version=""1.0""?>\n<Clock xmlns:dt=""urn:schemas-microsoft-com:datatypes""><Description dt:dt=""string"">E-Prime Primary Realtime Clock</Description><StartTime><Timestamp dt:dt=""int"">0</Timestamp><DateUtc dt:dt=""string"">2017-10-09T11:47:04Z</DateUtc></StartTime><FrequencyChanges><FrequencyChange><Frequency dt:dt=""r8"">2923154</Frequency><Timestamp dt:dt=""r8"">10525532348</Timestamp><Current dt:dt=""r8"">0</Current><DateUtc dt:dt=""string"">2017-10-09T11:47:04Z</DateUtc></FrequencyChange></FrequencyChanges></Clock>\n",DualSimon-001002-1,59.955,59.955,1.0.0.505,1,1936161497,Professional,2.0.10.353,2.0.10.353,10/09/2017,09/10/2017 11:47,12:47:04,2.0.10.248,1,1,1,1,CM1,List1,1,NULL,NULL,NULL,1,1,1,CM1Prac,BlockList4,10,4,2,10,NULL,NULL,NULL,NULL,NULL,NULL,NULL,NULL,NULL,w,e,TrialProc2,CM1PracTrails1,red,blue,w,e,1,w,434,1,e,337
DualSimon,1002,1,"<?xml version=""1.0""?>\n<Clock xmlns:dt=""urn:schemas-microsoft-com:datatypes""><Description dt:dt=""string"">E-Prime Primary Realtime Clock</Description><StartTime><Timestamp dt:dt=""int"">0</Timestamp><DateUtc dt:dt=""string"">2017-10-09T11:47:04Z</DateUtc></StartTime><FrequencyChanges><FrequencyChange><Frequency dt:dt=""r8"">2923154</Frequency><Timestamp dt:dt=""r8"">10525532348</Timestamp><Current dt:dt=""r8"">0</Current><DateUtc dt:dt=""string"">2017-10-09T11:47:04Z</DateUtc></FrequencyChange></FrequencyChanges></Clock>\n",DualSimon-001002-1,59.955,59.955,1.0.0.505,1,1936161497,Professional,2.0.10.353,2.0.10.353,10/09/2017,09/10/2017 11:47,12:47:04,2.0.10.248,1,1,1,1,CM1,List1,1,NULL,NULL,NULL,1,1,1,CM1Prac,BlockList4,11,9,2,11,NULL,NULL,NULL,NULL,NULL,NULL,NULL,NULL,NULL,e,e,TrialProc2,CM1PracTrails1,blue,blue,e,e,1,e,241,1,e,388
DualSimon,1002,1,"<?xml version=""1.0""?>\n<Clock xmlns:dt=""urn:schemas-microsoft-com:datatypes""><Description dt:dt=""string"">E-Prime Primary Realtime Clock</Description><StartTime><Timestamp dt:dt=""int"">0</Timestamp><DateUtc dt:dt=""string"">2017-10-09T11:47:04Z</DateUtc></StartTime><FrequencyChanges><FrequencyChange><Frequency dt:dt=""r8"">2923154</Frequency><Timestamp dt:dt=""r8"">10525532348</Timestamp><Current dt:dt=""r8"">0</Current><DateUtc dt:dt=""string"">2017-10-09T11:47:04Z</DateUtc></FrequencyChange></FrequencyChanges></Clock>\n",DualSimon-001002-1,59.955,59.955,1.0.0.505,1,1936161497,Professional,2.0.10.353,2.0.10.353,10/09/2017,09/10/2017 11:47,12:47:04,2.0.10.248,1,1,1,1,CM1,List1,1,NULL,NULL,NULL,1,1,1,CM1Prac,BlockList4,12,6,2,12,NULL,NULL,NULL,NULL,NULL,NULL,NULL,NULL,NULL,w,w,TrialProc2,CM1PracTrails1,red,red,e,e,1,w,390,1,w,526
DualSimon,1002,1,"<?xml version=""1.0""?>\n<Clock xmlns:dt=""urn:schemas-microsoft-com:datatypes""><Description dt:dt=""string"">E-Prime Primary Realtime Clock</Description><StartTime><Timestamp dt:dt=""int"">0</Timestamp><DateUtc dt:dt=""string"">2017-10-09T11:47:04Z</DateUtc></StartTime><FrequencyChanges><FrequencyChange><Frequency dt:dt=""r8"">2923154</Frequency><Timestamp dt:dt=""r8"">10525532348</Timestamp><Current dt:dt=""r8"">0</Current><DateUtc dt:dt=""string"">2017-10-09T11:47:04Z</DateUtc></FrequencyChange></FrequencyChanges></Clock>\n",DualSimon-001002-1,59.955,59.955,1.0.0.505,1,1936161497,Professional,2.0.10.353,2.0.10.353,10/09/2017,09/10/2017 11:47,12:47:04,2.0.10.248,1,1,1,1,CM1,List1,1,NULL,NULL,NULL,1,1,1,CM1Prac,BlockList4,13,7,2,13,NULL,NULL,NULL,NULL,NULL,NULL,NULL,NULL,NULL,e,w,TrialProc2,CM1PracTrails1,blue,red,w,e,1,e,304,1,w,478
DualSimon,1002,1,"<?xml version=""1.0""?>\n<Clock xmlns:dt=""urn:schemas-microsoft-com:datatypes""><Description dt:dt=""string"">E-Prime Primary Realtime Clock</Description><StartTime><Timestamp dt:dt=""int"">0</Timestamp><DateUtc dt:dt=""string"">2017-10-09T11:47:04Z</DateUtc></StartTime><FrequencyChanges><FrequencyChange><Frequency dt:dt=""r8"">2923154</Frequency><Timestamp dt:dt=""r8"">10525532348</Timestamp><Current dt:dt=""r8"">0</Current><DateUtc dt:dt=""string"">2017-10-09T11:47:04Z</DateUtc></FrequencyChange></FrequencyChanges></Clock>\n",DualSimon-001002-1,59.955,59.955,1.0.0.505,1,1936161497,Professional,2.0.10.353,2.0.10.353,10/09/2017,09/10/2017 11:47,12:47:04,2.0.10.248,1,1,1,1,CM1,List1,1,NULL,NULL,NULL,1,1,1,CM1Prac,BlockList4,14,13,2,14,NULL,NULL,NULL,NULL,NULL,NULL,NULL,NULL,NULL,e,e,TrialProc2,CM1PracTrails1,blue,blue,w,w,1,e,407,1,e,358
DualSimon,1002,1,"<?xml version=""1.0""?>\n<Clock xmlns:dt=""urn:schemas-microsoft-com:datatypes""><Description dt:dt=""string"">E-Prime Primary Realtime Clock</Description><StartTime><Timestamp dt:dt=""int"">0</Timestamp><DateUtc dt:dt=""string"">2017-10-09T11:47:04Z</DateUtc></StartTime><FrequencyChanges><FrequencyChange><Frequency dt:dt=""r8"">2923154</Frequency><Timestamp dt:dt=""r8"">10525532348</Timestamp><Current dt:dt=""r8"">0</Current><DateUtc dt:dt=""string"">2017-10-09T11:47:04Z</DateUtc></FrequencyChange></FrequencyChanges></Clock>\n",DualSimon-001002-1,59.955,59.955,1.0.0.505,1,1936161497,Professional,2.0.10.353,2.0.10.353,10/09/2017,09/10/2017 11:47,12:47:04,2.0.10.248,1,1,1,1,CM1,List1,1,NULL,NULL,NULL,1,1,1,CM1Prac,BlockList4,15,10,2,15,NULL,NULL,NULL,NULL,NULL,NULL,NULL,NULL,NULL,w,w,TrialProc2,CM1PracTrails1,red,red,w,w,1,w,424,1,w,357
DualSimon,1002,1,"<?xml version=""1.0""?>\n<Clock xmlns:dt=""urn:schemas-microsoft-com:datatypes""><Description dt:dt=""string"">E-Prime Primary Realtime Clock</Description><StartTime><Timestamp dt:dt=""int"">0</Timestamp><DateUtc dt:dt=""string"">2017-10-09T11:47:04Z</DateUtc></StartTime><FrequencyChanges><FrequencyChange><Frequency dt:dt=""r8"">2923154</Frequency><Timestamp dt:dt=""r8"">10525532348</Timestamp><Current dt:dt=""r8"">0</Current><DateUtc dt:dt=""string"">2017-10-09T11:47:04Z</DateUtc></FrequencyChange></FrequencyChanges></Clock>\n",DualSimon-001002-1,59.955,59.955,1.0.0.505,1,1936161497,Professional,2.0.10.353,2.0.10.353,10/09/2017,09/10/2017 11:47,12:47:04,2.0.10.248,1,1,1,1,CM1,List1,1,NULL,NULL,NULL,1,1,1,CM1Prac,BlockList4,16,5,2,16,NULL,NULL,NULL,NULL,NULL,NULL,NULL,NULL,NULL,e,e,TrialProc2,CM1PracTrails1,blue,blue,w,w,1,e,410,1,e,456
DualSimon,1002,1,"<?xml version=""1.0""?>\n<Clock xmlns:dt=""urn:schemas-microsoft-com:datatypes""><Description dt:dt=""string"">E-Prime Primary Realtime Clock</Description><StartTime><Timestamp dt:dt=""int"">0</Timestamp><DateUtc dt:dt=""string"">2017-10-09T11:47:04Z</DateUtc></StartTime><FrequencyChanges><FrequencyChange><Frequency dt:dt=""r8"">2923154</Frequency><Timestamp dt:dt=""r8"">10525532348</Timestamp><Current dt:dt=""r8"">0</Current><DateUtc dt:dt=""string"">2017-10-09T11:47:04Z</DateUtc></FrequencyChange></FrequencyChanges></Clock>\n",DualSimon-001002-1,59.955,59.955,1.0.0.505,1,1936161497,Professional,2.0.10.353,2.0.10.353,10/09/2017,09/10/2017 11:47,12:47:04,2.0.10.248,1,1,1,1,CM1,List1,2,NULL,NULL,NULL,2,1,2,InstruProc,BlockList4,NULL,NULL,NULL,NULL,NULL,NULL,NULL,NULL,NULL,NULL,NULL,NULL,NULL,NULL,NULL,NULL,NULL,NULL,NULL,NULL,NULL,NULL,NULL,NULL,NULL,NULL,NULL
DualSimon,1002,1,"<?xml version=""1.0""?>\n<Clock xmlns:dt=""urn:schemas-microsoft-com:datatypes""><Description dt:dt=""string"">E-Prime Primary Realtime Clock</Description><StartTime><Timestamp dt:dt=""int"">0</Timestamp><DateUtc dt:dt=""string"">2017-10-09T11:47:04Z</DateUtc></StartTime><FrequencyChanges><FrequencyChange><Frequency dt:dt=""r8"">2923154</Frequency><Timestamp dt:dt=""r8"">10525532348</Timestamp><Current dt:dt=""r8"">0</Current><DateUtc dt:dt=""string"">2017-10-09T11:47:04Z</DateUtc></FrequencyChange></FrequencyChanges></Clock>\n",DualSimon-001002-1,59.955,59.955,1.0.0.505,1,1936161497,Professional,2.0.10.353,2.0.10.353,10/09/2017,09/10/2017 11:47,12:47:04,2.0.10.248,1,1,1,1,CM1,List1,3,NULL,NULL,NULL,3,1,3,b1,BlockList4,1,NULL,NULL,NULL,90,2,1,NULL,NULL,NULL,NULL,NULL,NULL,w,e,TrialProc,CM1Trails,red,blue,e,w,1,w,853,1,e,479
DualSimon,1002,1,"<?xml version=""1.0""?>\n<Clock xmlns:dt=""urn:schemas-microsoft-com:datatypes""><Description dt:dt=""string"">E-Prime Primary Realtime Clock</Description><StartTime><Timestamp dt:dt=""int"">0</Timestamp><DateUtc dt:dt=""string"">2017-10-09T11:47:04Z</DateUtc></StartTime><FrequencyChanges><FrequencyChange><Frequency dt:dt=""r8"">2923154</Frequency><Timestamp dt:dt=""r8"">10525532348</Timestamp><Current dt:dt=""r8"">0</Current><DateUtc dt:dt=""string"">2017-10-09T11:47:04Z</DateUtc></FrequencyChange></FrequencyChanges></Clock>\n",DualSimon-001002-1,59.955,59.955,1.0.0.505,1,1936161497,Professional,2.0.10.353,2.0.10.353,10/09/2017,09/10/2017 11:47,12:47:04,2.0.10.248,1,1,1,1,CM1,List1,3,NULL,NULL,NULL,3,1,3,b1,BlockList4,2,NULL,NULL,NULL,1,2,2,NULL,NULL,NULL,NULL,NULL,NULL,e,e,TrialProc,CM1Trails,blue,blue,e,e,1,e,332,1,e,454
DualSimon,1002,1,"<?xml version=""1.0""?>\n<Clock xmlns:dt=""urn:schemas-microsoft-com:datatypes""><Description dt:dt=""string"">E-Prime Primary Realtime Clock</Description><StartTime><Timestamp dt:dt=""int"">0</Timestamp><DateUtc dt:dt=""string"">2017-10-09T11:47:04Z</DateUtc></StartTime><FrequencyChanges><FrequencyChange><Frequency dt:dt=""r8"">2923154</Frequency><Timestamp dt:dt=""r8"">10525532348</Timestamp><Current dt:dt=""r8"">0</Current><DateUtc dt:dt=""string"">2017-10-09T11:47:04Z</DateUtc></FrequencyChange></FrequencyChanges></Clock>\n",DualSimon-001002-1,59.955,59.955,1.0.0.505,1,1936161497,Professional,2.0.10.353,2.0.10.353,10/09/2017,09/10/2017 11:47,12:47:04,2.0.10.248,1,1,1,1,CM1,List1,3,NULL,NULL,NULL,3,1,3,b1,BlockList4,3,NULL,NULL,NULL,84,2,3,NULL,NULL,NULL,NULL,NULL,NULL,e,w,TrialProc,CM1Trails,blue,red,w,e,1,e,413,1,w,422
DualSimon,1002,1,"<?xml version=""1.0""?>\n<Clock xmlns:dt=""urn:schemas-microsoft-com:datatypes""><Description dt:dt=""string"">E-Prime Primary Realtime Clock</Description><StartTime><Timestamp dt:dt=""int"">0</Timestamp><DateUtc dt:dt=""string"">2017-10-09T11:47:04Z</DateUtc></StartTime><FrequencyChanges><FrequencyChange><Frequency dt:dt=""r8"">2923154</Frequency><Timestamp dt:dt=""r8"">10525532348</Timestamp><Current dt:dt=""r8"">0</Current><DateUtc dt:dt=""string"">2017-10-09T11:47:04Z</DateUtc></FrequencyChange></FrequencyChanges></Clock>\n",DualSimon-001002-1,59.955,59.955,1.0.0.505,1,1936161497,Professional,2.0.10.353,2.0.10.353,10/09/2017,09/10/2017 11:47,12:47:04,2.0.10.248,1,1,1,1,CM1,List1,3,NULL,NULL,NULL,3,1,3,b1,BlockList4,4,NULL,NULL,NULL,93,2,4,NULL,NULL,NULL,NULL,NULL,NULL,w,e,TrialProc,CM1Trails,red,blue,e,w,1,w,298,1,e,453
DualSimon,1002,1,"<?xml version=""1.0""?>\n<Clock xmlns:dt=""urn:schemas-microsoft-com:datatypes""><Description dt:dt=""string"">E-Prime Primary Realtime Clock</Description><StartTime><Timestamp dt:dt=""int"">0</Timestamp><DateUtc dt:dt=""string"">2017-10-09T11:47:04Z</DateUtc></StartTime><FrequencyChanges><FrequencyChange><Frequency dt:dt=""r8"">2923154</Frequency><Timestamp dt:dt=""r8"">10525532348</Timestamp><Current dt:dt=""r8"">0</Current><DateUtc dt:dt=""string"">2017-10-09T11:47:04Z</DateUtc></FrequencyChange></FrequencyChanges></Clock>\n",DualSimon-001002-1,59.955,59.955,1.0.0.505,1,1936161497,Professional,2.0.10.353,2.0.10.353,10/09/2017,09/10/2017 11:47,12:47:04,2.0.10.248,1,1,1,1,CM1,List1,3,NULL,NULL,NULL,3,1,3,b1,BlockList4,5,NULL,NULL,NULL,16,2,5,NULL,NULL,NULL,NULL,NULL,NULL,e,e,TrialProc,CM1Trails,blue,blue,e,e,1,e,528,1,e,405
DualSimon,1002,1,"<?xml version=""1.0""?>\n<Clock xmlns:dt=""urn:schemas-microsoft-com:datatypes""><Description dt:dt=""string"">E-Prime Primary Realtime Clock</Description><StartTime><Timestamp dt:dt=""int"">0</Timestamp><DateUtc dt:dt=""string"">2017-10-09T11:47:04Z</DateUtc></StartTime><FrequencyChanges><FrequencyChange><Frequency dt:dt=""r8"">2923154</Frequency><Timestamp dt:dt=""r8"">10525532348</Timestamp><Current dt:dt=""r8"">0</Current><DateUtc dt:dt=""string"">2017-10-09T11:47:04Z</DateUtc></FrequencyChange></FrequencyChanges></Clock>\n",DualSimon-001002-1,59.955,59.955,1.0.0.505,1,1936161497,Professional,2.0.10.353,2.0.10.353,10/09/2017,09/10/2017 11:47,12:47:04,2.0.10.248,1,1,1,1,CM1,List1,3,NULL,NULL,NULL,3,1,3,b1,BlockList4,6,NULL,NULL,NULL,60,2,6,NULL,NULL,NULL,NULL,NULL,NULL,e,e,TrialProc,CM1Trails,blue,blue,w,w,1,e,384,1,e,398
DualSimon,1002,1,"<?xml version=""1.0""?>\n<Clock xmlns:dt=""urn:schemas-microsoft-com:datatypes""><Description dt:dt=""string"">E-Prime Primary Realtime Clock</Description><StartTime><Timestamp dt:dt=""int"">0</Timestamp><DateUtc dt:dt=""string"">2017-10-09T11:47:04Z</DateUtc></StartTime><FrequencyChanges><FrequencyChange><Frequency dt:dt=""r8"">2923154</Frequency><Timestamp dt:dt=""r8"">10525532348</Timestamp><Current dt:dt=""r8"">0</Current><DateUtc dt:dt=""string"">2017-10-09T11:47:04Z</DateUtc></FrequencyChange></FrequencyChanges></Clock>\n",DualSimon-001002-1,59.955,59.955,1.0.0.505,1,1936161497,Professional,2.0.10.353,2.0.10.353,10/09/2017,09/10/2017 11:47,12:47:04,2.0.10.248,1,1,1,1,CM1,List1,3,NULL,NULL,NULL,3,1,3,b1,BlockList4,7,NULL,NULL,NULL,36,2,7,NULL,NULL,NULL,NULL,NULL,NULL,e,w,TrialProc,CM1Trails,blue,red,e,w,1,e,350,1,w,392
DualSimon,1002,1,"<?xml version=""1.0""?>\n<Clock xmlns:dt=""urn:schemas-microsoft-com:datatypes""><Description dt:dt=""string"">E-Prime Primary Realtime Clock</Description><StartTime><Timestamp dt:dt=""int"">0</Timestamp><DateUtc dt:dt=""string"">2017-10-09T11:47:04Z</DateUtc></StartTime><FrequencyChanges><FrequencyChange><Frequency dt:dt=""r8"">2923154</Frequency><Timestamp dt:dt=""r8"">10525532348</Timestamp><Current dt:dt=""r8"">0</Current><DateUtc dt:dt=""string"">2017-10-09T11:47:04Z</DateUtc></FrequencyChange></FrequencyChanges></Clock>\n",DualSimon-001002-1,59.955,59.955,1.0.0.505,1,1936161497,Professional,2.0.10.353,2.0.10.353,10/09/2017,09/10/2017 11:47,12:47:04,2.0.10.248,1,1,1,1,CM1,List1,3,NULL,NULL,NULL,3,1,3,b1,BlockList4,8,NULL,NULL,NULL,29,2,8,NULL,NULL,NULL,NULL,NULL,NULL,w,w,TrialProc,CM1Trails,red,red,w,w,1,w,307,1,w,301
DualSimon,1002,1,"<?xml version=""1.0""?>\n<Clock xmlns:dt=""urn:schemas-microsoft-com:datatypes""><Description dt:dt=""string"">E-Prime Primary Realtime Clock</Description><StartTime><Timestamp dt:dt=""int"">0</Timestamp><DateUtc dt:dt=""string"">2017-10-09T11:47:04Z</DateUtc></StartTime><FrequencyChanges><FrequencyChange><Frequency dt:dt=""r8"">2923154</Frequency><Timestamp dt:dt=""r8"">10525532348</Timestamp><Current dt:dt=""r8"">0</Current><DateUtc dt:dt=""string"">2017-10-09T11:47:04Z</DateUtc></FrequencyChange></FrequencyChanges></Clock>\n",DualSimon-001002-1,59.955,59.955,1.0.0.505,1,1936161497,Professional,2.0.10.353,2.0.10.353,10/09/2017,09/10/2017 11:47,12:47:04,2.0.10.248,1,1,1,1,CM1,List1,3,NULL,NULL,NULL,3,1,3,b1,BlockList4,9,NULL,NULL,NULL,8,2,9,NULL,NULL,NULL,NULL,NULL,NULL,w,e,TrialProc,CM1Trails,red,blue,e,w,1,w,460,1,e,601
DualSimon,1002,1,"<?xml version=""1.0""?>\n<Clock xmlns:dt=""urn:schemas-microsoft-com:datatypes""><Description dt:dt=""string"">E-Prime Primary Realtime Clock</Description><StartTime><Timestamp dt:dt=""int"">0</Timestamp><DateUtc dt:dt=""string"">2017-10-09T11:47:04Z</DateUtc></StartTime><FrequencyChanges><FrequencyChange><Frequency dt:dt=""r8"">2923154</Frequency><Timestamp dt:dt=""r8"">10525532348</Timestamp><Current dt:dt=""r8"">0</Current><DateUtc dt:dt=""string"">2017-10-09T11:47:04Z</DateUtc></FrequencyChange></FrequencyChanges></Clock>\n",DualSimon-001002-1,59.955,59.955,1.0.0.505,1,1936161497,Professional,2.0.10.353,2.0.10.353,10/09/2017,09/10/2017 11:47,12:47:04,2.0.10.248,1,1,1,1,CM1,List1,3,NULL,NULL,NULL,3,1,3,b1,BlockList4,10,NULL,NULL,NULL,49,2,10,NULL,NULL,NULL,NULL,NULL,NULL,w,e,TrialProc,CM1Trails,red,blue,w,e,1,w,442,1,e,382
DualSimon,1002,1,"<?xml version=""1.0""?>\n<Clock xmlns:dt=""urn:schemas-microsoft-com:datatypes""><Description dt:dt=""string"">E-Prime Primary Realtime Clock</Description><StartTime><Timestamp dt:dt=""int"">0</Timestamp><DateUtc dt:dt=""string"">2017-10-09T11:47:04Z</DateUtc></StartTime><FrequencyChanges><FrequencyChange><Frequency dt:dt=""r8"">2923154</Frequency><Timestamp dt:dt=""r8"">10525532348</Timestamp><Current dt:dt=""r8"">0</Current><DateUtc dt:dt=""string"">2017-10-09T11:47:04Z</DateUtc></FrequencyChange></FrequencyChanges></Clock>\n",DualSimon-001002-1,59.955,59.955,1.0.0.505,1,1936161497,Professional,2.0.10.353,2.0.10.353,10/09/2017,09/10/2017 11:47,12:47:04,2.0.10.248,1,1,1,1,CM1,List1,3,NULL,NULL,NULL,3,1,3,b1,BlockList4,11,NULL,NULL,NULL,81,2,11,NULL,NULL,NULL,NULL,NULL,NULL,e,w,TrialProc,CM1Trails,blue,red,w,e,1,e,423,1,w,413
DualSimon,1002,1,"<?xml version=""1.0""?>\n<Clock xmlns:dt=""urn:schemas-microsoft-com:datatypes""><Description dt:dt=""string"">E-Prime Primary Realtime Clock</Description><StartTime><Timestamp dt:dt=""int"">0</Timestamp><DateUtc dt:dt=""string"">2017-10-09T11:47:04Z</DateUtc></StartTime><FrequencyChanges><FrequencyChange><Frequency dt:dt=""r8"">2923154</Frequency><Timestamp dt:dt=""r8"">10525532348</Timestamp><Current dt:dt=""r8"">0</Current><DateUtc dt:dt=""string"">2017-10-09T11:47:04Z</DateUtc></FrequencyChange></FrequencyChanges></Clock>\n",DualSimon-001002-1,59.955,59.955,1.0.0.505,1,1936161497,Professional,2.0.10.353,2.0.10.353,10/09/2017,09/10/2017 11:47,12:47:04,2.0.10.248,1,1,1,1,CM1,List1,3,NULL,NULL,NULL,3,1,3,b1,BlockList4,12,NULL,NULL,NULL,35,2,12,NULL,NULL,NULL,NULL,NULL,NULL,e,w,TrialProc,CM1Trails,blue,red,e,w,1,e,336,1,w,489
DualSimon,1002,1,"<?xml version=""1.0""?>\n<Clock xmlns:dt=""urn:schemas-microsoft-com:datatypes""><Description dt:dt=""string"">E-Prime Primary Realtime Clock</Description><StartTime><Timestamp dt:dt=""int"">0</Timestamp><DateUtc dt:dt=""string"">2017-10-09T11:47:04Z</DateUtc></StartTime><FrequencyChanges><FrequencyChange><Frequency dt:dt=""r8"">2923154</Frequency><Timestamp dt:dt=""r8"">10525532348</Timestamp><Current dt:dt=""r8"">0</Current><DateUtc dt:dt=""string"">2017-10-09T11:47:04Z</DateUtc></FrequencyChange></FrequencyChanges></Clock>\n",DualSimon-001002-1,59.955,59.955,1.0.0.505,1,1936161497,Professional,2.0.10.353,2.0.10.353,10/09/2017,09/10/2017 11:47,12:47:04,2.0.10.248,1,1,1,1,CM1,List1,3,NULL,NULL,NULL,3,1,3,b1,BlockList4,13,NULL,NULL,NULL,13,2,13,NULL,NULL,NULL,NULL,NULL,NULL,e,e,TrialProc,CM1Trails,blue,blue,e,e,1,e,299,1,e,359
DualSimon,1002,1,"<?xml version=""1.0""?>\n<Clock xmlns:dt=""urn:schemas-microsoft-com:datatypes""><Description dt:dt=""string"">E-Prime Primary Realtime Clock</Description><StartTime><Timestamp dt:dt=""int"">0</Timestamp><DateUtc dt:dt=""string"">2017-10-09T11:47:04Z</DateUtc></StartTime><FrequencyChanges><FrequencyChange><Frequency dt:dt=""r8"">2923154</Frequency><Timestamp dt:dt=""r8"">10525532348</Timestamp><Current dt:dt=""r8"">0</Current><DateUtc dt:dt=""string"">2017-10-09T11:47:04Z</DateUtc></FrequencyChange></FrequencyChanges></Clock>\n",DualSimon-001002-1,59.955,59.955,1.0.0.505,1,1936161497,Professional,2.0.10.353,2.0.10.353,10/09/2017,09/10/2017 11:47,12:47:04,2.0.10.248,1,1,1,1,CM1,List1,3,NULL,NULL,NULL,3,1,3,b1,BlockList4,14,NULL,NULL,NULL,47,2,14,NULL,NULL,NULL,NULL,NULL,NULL,w,e,TrialProc,CM1Trails,red,blue,w,e,1,w,390,1,e,710
DualSimon,1002,1,"<?xml version=""1.0""?>\n<Clock xmlns:dt=""urn:schemas-microsoft-com:datatypes""><Description dt:dt=""string"">E-Prime Primary Realtime Clock</Description><StartTime><Timestamp dt:dt=""int"">0</Timestamp><DateUtc dt:dt=""string"">2017-10-09T11:47:04Z</DateUtc></StartTime><FrequencyChanges><FrequencyChange><Frequency dt:dt=""r8"">2923154</Frequency><Timestamp dt:dt=""r8"">10525532348</Timestamp><Current dt:dt=""r8"">0</Current><DateUtc dt:dt=""string"">2017-10-09T11:47:04Z</DateUtc></FrequencyChange></FrequencyChanges></Clock>\n",DualSimon-001002-1,59.955,59.955,1.0.0.505,1,1936161497,Professional,2.0.10.353,2.0.10.353,10/09/2017,09/10/2017 11:47,12:47:04,2.0.10.248,1,1,1,1,CM1,List1,3,NULL,NULL,NULL,3,1,3,b1,BlockList4,15,NULL,NULL,NULL,96,2,15,NULL,NULL,NULL,NULL,NULL,NULL,w,e,TrialProc,CM1Trails,red,blue,e,w,1,w,484,1,e,441
DualSimon,1002,1,"<?xml version=""1.0""?>\n<Clock xmlns:dt=""urn:schemas-microsoft-com:datatypes""><Description dt:dt=""string"">E-Prime Primary Realtime Clock</Description><StartTime><Timestamp dt:dt=""int"">0</Timestamp><DateUtc dt:dt=""string"">2017-10-09T11:47:04Z</DateUtc></StartTime><FrequencyChanges><FrequencyChange><Frequency dt:dt=""r8"">2923154</Frequency><Timestamp dt:dt=""r8"">10525532348</Timestamp><Current dt:dt=""r8"">0</Current><DateUtc dt:dt=""string"">2017-10-09T11:47:04Z</DateUtc></FrequencyChange></FrequencyChanges></Clock>\n",DualSimon-001002-1,59.955,59.955,1.0.0.505,1,1936161497,Professional,2.0.10.353,2.0.10.353,10/09/2017,09/10/2017 11:47,12:47:04,2.0.10.248,1,1,1,1,CM1,List1,3,NULL,NULL,NULL,3,1,3,b1,BlockList4,16,NULL,NULL,NULL,44,2,16,NULL,NULL,NULL,NULL,NULL,NULL,w,e,TrialProc,CM1Trails,red,blue,w,e,1,w,387,1,e,432
DualSimon,1002,1,"<?xml version=""1.0""?>\n<Clock xmlns:dt=""urn:schemas-microsoft-com:datatypes""><Description dt:dt=""string"">E-Prime Primary Realtime Clock</Description><StartTime><Timestamp dt:dt=""int"">0</Timestamp><DateUtc dt:dt=""string"">2017-10-09T11:47:04Z</DateUtc></StartTime><FrequencyChanges><FrequencyChange><Frequency dt:dt=""r8"">2923154</Frequency><Timestamp dt:dt=""r8"">10525532348</Timestamp><Current dt:dt=""r8"">0</Current><DateUtc dt:dt=""string"">2017-10-09T11:47:04Z</DateUtc></FrequencyChange></FrequencyChanges></Clock>\n",DualSimon-001002-1,59.955,59.955,1.0.0.505,1,1936161497,Professional,2.0.10.353,2.0.10.353,10/09/2017,09/10/2017 11:47,12:47:04,2.0.10.248,1,1,1,1,CM1,List1,3,NULL,NULL,NULL,3,1,3,b1,BlockList4,17,NULL,NULL,NULL,94,2,17,NULL,NULL,NULL,NULL,NULL,NULL,w,e,TrialProc,CM1Trails,red,blue,e,w,1,w,465,1,e,415
DualSimon,1002,1,"<?xml version=""1.0""?>\n<Clock xmlns:dt=""urn:schemas-microsoft-com:datatypes""><Description dt:dt=""string"">E-Prime Primary Realtime Clock</Description><StartTime><Timestamp dt:dt=""int"">0</Timestamp><DateUtc dt:dt=""string"">2017-10-09T11:47:04Z</DateUtc></StartTime><FrequencyChanges><FrequencyChange><Frequency dt:dt=""r8"">2923154</Frequency><Timestamp dt:dt=""r8"">10525532348</Timestamp><Current dt:dt=""r8"">0</Current><DateUtc dt:dt=""string"">2017-10-09T11:47:04Z</DateUtc></FrequencyChange></FrequencyChanges></Clock>\n",DualSimon-001002-1,59.955,59.955,1.0.0.505,1,1936161497,Professional,2.0.10.353,2.0.10.353,10/09/2017,09/10/2017 11:47,12:47:04,2.0.10.248,1,1,1,1,CM1,List1,3,NULL,NULL,NULL,3,1,3,b1,BlockList4,18,NULL,NULL,NULL,74,2,18,NULL,NULL,NULL,NULL,NULL,NULL,w,w,TrialProc,CM1Trails,red,red,e,e,1,w,526,1,w,457
DualSimon,1002,1,"<?xml version=""1.0""?>\n<Clock xmlns:dt=""urn:schemas-microsoft-com:datatypes""><Description dt:dt=""string"">E-Prime Primary Realtime Clock</Description><StartTime><Timestamp dt:dt=""int"">0</Timestamp><DateUtc dt:dt=""string"">2017-10-09T11:47:04Z</DateUtc></StartTime><FrequencyChanges><FrequencyChange><Frequency dt:dt=""r8"">2923154</Frequency><Timestamp dt:dt=""r8"">10525532348</Timestamp><Current dt:dt=""r8"">0</Current><DateUtc dt:dt=""string"">2017-10-09T11:47:04Z</DateUtc></FrequencyChange></FrequencyChanges></Clock>\n",DualSimon-001002-1,59.955,59.955,1.0.0.505,1,1936161497,Professional,2.0.10.353,2.0.10.353,10/09/2017,09/10/2017 11:47,12:47:04,2.0.10.248,1,1,1,1,CM1,List1,3,NULL,NULL,NULL,3,1,3,b1,BlockList4,19,NULL,NULL,NULL,51,2,19,NULL,NULL,NULL,NULL,NULL,NULL,w,e,TrialProc,CM1Trails,red,blue,w,e,1,w,412,1,e,586
DualSimon,1002,1,"<?xml version=""1.0""?>\n<Clock xmlns:dt=""urn:schemas-microsoft-com:datatypes""><Description dt:dt=""string"">E-Prime Primary Realtime Clock</Description><StartTime><Timestamp dt:dt=""int"">0</Timestamp><DateUtc dt:dt=""string"">2017-10-09T11:47:04Z</DateUtc></StartTime><FrequencyChanges><FrequencyChange><Frequency dt:dt=""r8"">2923154</Frequency><Timestamp dt:dt=""r8"">10525532348</Timestamp><Current dt:dt=""r8"">0</Current><DateUtc dt:dt=""string"">2017-10-09T11:47:04Z</DateUtc></FrequencyChange></FrequencyChanges></Clock>\n",DualSimon-001002-1,59.955,59.955,1.0.0.505,1,1936161497,Professional,2.0.10.353,2.0.10.353,10/09/2017,09/10/2017 11:47,12:47:04,2.0.10.248,1,1,1,1,CM1,List1,3,NULL,NULL,NULL,3,1,3,b1,BlockList4,20,NULL,NULL,NULL,64,2,20,NULL,NULL,NULL,NULL,NULL,NULL,w,w,TrialProc,CM1Trails,red,red,e,e,1,w,434,1,w,519
DualSimon,1002,1,"<?xml version=""1.0""?>\n<Clock xmlns:dt=""urn:schemas-microsoft-com:datatypes""><Description dt:dt=""string"">E-Prime Primary Realtime Clock</Description><StartTime><Timestamp dt:dt=""int"">0</Timestamp><DateUtc dt:dt=""string"">2017-10-09T11:47:04Z</DateUtc></StartTime><FrequencyChanges><FrequencyChange><Frequency dt:dt=""r8"">2923154</Frequency><Timestamp dt:dt=""r8"">10525532348</Timestamp><Current dt:dt=""r8"">0</Current><DateUtc dt:dt=""string"">2017-10-09T11:47:04Z</DateUtc></FrequencyChange></FrequencyChanges></Clock>\n",DualSimon-001002-1,59.955,59.955,1.0.0.505,1,1936161497,Professional,2.0.10.353,2.0.10.353,10/09/2017,09/10/2017 11:47,12:47:04,2.0.10.248,1,1,1,1,CM1,List1,3,NULL,NULL,NULL,3,1,3,b1,BlockList4,21,NULL,NULL,NULL,2,2,21,NULL,NULL,NULL,NULL,NULL,NULL,w,w,TrialProc,CM1Trails,red,red,w,w,1,w,633,1,w,715
DualSimon,1002,1,"<?xml version=""1.0""?>\n<Clock xmlns:dt=""urn:schemas-microsoft-com:datatypes""><Description dt:dt=""string"">E-Prime Primary Realtime Clock</Description><StartTime><Timestamp dt:dt=""int"">0</Timestamp><DateUtc dt:dt=""string"">2017-10-09T11:47:04Z</DateUtc></StartTime><FrequencyChanges><FrequencyChange><Frequency dt:dt=""r8"">2923154</Frequency><Timestamp dt:dt=""r8"">10525532348</Timestamp><Current dt:dt=""r8"">0</Current><DateUtc dt:dt=""string"">2017-10-09T11:47:04Z</DateUtc></FrequencyChange></FrequencyChanges></Clock>\n",DualSimon-001002-1,59.955,59.955,1.0.0.505,1,1936161497,Professional,2.0.10.353,2.0.10.353,10/09/2017,09/10/2017 11:47,12:47:04,2.0.10.248,1,1,1,1,CM1,List1,3,NULL,NULL,NULL,3,1,3,b1,BlockList4,22,NULL,NULL,NULL,12,2,22,NULL,NULL,NULL,NULL,NULL,NULL,e,e,TrialProc,CM1Trails,blue,blue,e,e,1,e,274,1,e,400
DualSimon,1002,1,"<?xml version=""1.0""?>\n<Clock xmlns:dt=""urn:schemas-microsoft-com:datatypes""><Description dt:dt=""string"">E-Prime Primary Realtime Clock</Description><StartTime><Timestamp dt:dt=""int"">0</Timestamp><DateUtc dt:dt=""string"">2017-10-09T11:47:04Z</DateUtc></StartTime><FrequencyChanges><FrequencyChange><Frequency dt:dt=""r8"">2923154</Frequency><Timestamp dt:dt=""r8"">10525532348</Timestamp><Current dt:dt=""r8"">0</Current><DateUtc dt:dt=""string"">2017-10-09T11:47:04Z</DateUtc></FrequencyChange></FrequencyChanges></Clock>\n",DualSimon-001002-1,59.955,59.955,1.0.0.505,1,1936161497,Professional,2.0.10.353,2.0.10.353,10/09/2017,09/10/2017 11:47,12:47:04,2.0.10.248,1,1,1,1,CM1,List1,3,NULL,NULL,NULL,3,1,3,b1,BlockList4,23,NULL,NULL,NULL,9,2,23,NULL,NULL,NULL,NULL,NULL,NULL,e,e,TrialProc,CM1Trails,blue,blue,e,e,1,e,280,1,e,318
DualSimon,1002,1,"<?xml version=""1.0""?>\n<Clock xmlns:dt=""urn:schemas-microsoft-com:datatypes""><Description dt:dt=""string"">E-Prime Primary Realtime Clock</Description><StartTime><Timestamp dt:dt=""int"">0</Timestamp><DateUtc dt:dt=""string"">2017-10-09T11:47:04Z</DateUtc></StartTime><FrequencyChanges><FrequencyChange><Frequency dt:dt=""r8"">2923154</Frequency><Timestamp dt:dt=""r8"">10525532348</Timestamp><Current dt:dt=""r8"">0</Current><DateUtc dt:dt=""string"">2017-10-09T11:47:04Z</DateUtc></FrequencyChange></FrequencyChanges></Clock>\n",DualSimon-001002-1,59.955,59.955,1.0.0.505,1,1936161497,Professional,2.0.10.353,2.0.10.353,10/09/2017,09/10/2017 11:47,12:47:04,2.0.10.248,1,1,1,1,CM1,List1,3,NULL,NULL,NULL,3,1,3,b1,BlockList4,24,NULL,NULL,NULL,58,2,24,NULL,NULL,NULL,NULL,NULL,NULL,e,e,TrialProc,CM1Trails,blue,blue,w,w,1,e,398,1,e,537
DualSimon,1002,1,"<?xml version=""1.0""?>\n<Clock xmlns:dt=""urn:schemas-microsoft-com:datatypes""><Description dt:dt=""string"">E-Prime Primary Realtime Clock</Description><StartTime><Timestamp dt:dt=""int"">0</Timestamp><DateUtc dt:dt=""string"">2017-10-09T11:47:04Z</DateUtc></StartTime><FrequencyChanges><FrequencyChange><Frequency dt:dt=""r8"">2923154</Frequency><Timestamp dt:dt=""r8"">10525532348</Timestamp><Current dt:dt=""r8"">0</Current><DateUtc dt:dt=""string"">2017-10-09T11:47:04Z</DateUtc></FrequencyChange></FrequencyChanges></Clock>\n",DualSimon-001002-1,59.955,59.955,1.0.0.505,1,1936161497,Professional,2.0.10.353,2.0.10.353,10/09/2017,09/10/2017 11:47,12:47:04,2.0.10.248,1,1,1,1,CM1,List1,3,NULL,NULL,NULL,3,1,3,b1,BlockList4,25,NULL,NULL,NULL,57,2,25,NULL,NULL,NULL,NULL,NULL,NULL,e,e,TrialProc,CM1Trails,blue,blue,w,w,1,e,376,1,e,387
DualSimon,1002,1,"<?xml version=""1.0""?>\n<Clock xmlns:dt=""urn:schemas-microsoft-com:datatypes""><Description dt:dt=""string"">E-Prime Primary Realtime Clock</Description><StartTime><Timestamp dt:dt=""int"">0</Timestamp><DateUtc dt:dt=""string"">2017-10-09T11:47:04Z</DateUtc></StartTime><FrequencyChanges><FrequencyChange><Frequency dt:dt=""r8"">2923154</Frequency><Timestamp dt:dt=""r8"">10525532348</Timestamp><Current dt:dt=""r8"">0</Current><DateUtc dt:dt=""string"">2017-10-09T11:47:04Z</DateUtc></FrequencyChange></FrequencyChanges></Clock>\n",DualSimon-001002-1,59.955,59.955,1.0.0.505,1,1936161497,Professional,2.0.10.353,2.0.10.353,10/09/2017,09/10/2017 11:47,12:47:04,2.0.10.248,1,1,1,1,CM1,List1,3,NULL,NULL,NULL,3,1,3,b1,BlockList4,26,NULL,NULL,NULL,39,2,26,NULL,NULL,NULL,NULL,NULL,NULL,e,w,TrialProc,CM1Trails,blue,red,e,w,1,e,257,1,w,438
DualSimon,1002,1,"<?xml version=""1.0""?>\n<Clock xmlns:dt=""urn:schemas-microsoft-com:datatypes""><Description dt:dt=""string"">E-Prime Primary Realtime Clock</Description><StartTime><Timestamp dt:dt=""int"">0</Timestamp><DateUtc dt:dt=""string"">2017-10-09T11:47:04Z</DateUtc></StartTime><FrequencyChanges><FrequencyChange><Frequency dt:dt=""r8"">2923154</Frequency><Timestamp dt:dt=""r8"">10525532348</Timestamp><Current dt:dt=""r8"">0</Current><DateUtc dt:dt=""string"">2017-10-09T11:47:04Z</DateUtc></FrequencyChange></FrequencyChanges></Clock>\n",DualSimon-001002-1,59.955,59.955,1.0.0.505,1,1936161497,Professional,2.0.10.353,2.0.10.353,10/09/2017,09/10/2017 11:47,12:47:04,2.0.10.248,1,1,1,1,CM1,List1,3,NULL,NULL,NULL,3,1,3,b1,BlockList4,27,NULL,NULL,NULL,54,2,27,NULL,NULL,NULL,NULL,NULL,NULL,e,e,TrialProc,CM1Trails,blue,blue,w,w,1,e,382,1,e,535
DualSimon,1002,1,"<?xml version=""1.0""?>\n<Clock xmlns:dt=""urn:schemas-microsoft-com:datatypes""><Description dt:dt=""string"">E-Prime Primary Realtime Clock</Description><StartTime><Timestamp dt:dt=""int"">0</Timestamp><DateUtc dt:dt=""string"">2017-10-09T11:47:04Z</DateUtc></StartTime><FrequencyChanges><FrequencyChange><Frequency dt:dt=""r8"">2923154</Frequency><Timestamp dt:dt=""r8"">10525532348</Timestamp><Current dt:dt=""r8"">0</Current><DateUtc dt:dt=""string"">2017-10-09T11:47:04Z</DateUtc></FrequencyChange></FrequencyChanges></Clock>\n",DualSimon-001002-1,59.955,59.955,1.0.0.505,1,1936161497,Professional,2.0.10.353,2.0.10.353,10/09/2017,09/10/2017 11:47,12:47:04,2.0.10.248,1,1,1,1,CM1,List1,3,NULL,NULL,NULL,3,1,3,b1,BlockList4,28,NULL,NULL,NULL,10,2,28,NULL,NULL,NULL,NULL,NULL,NULL,e,e,TrialProc,CM1Trails,blue,blue,e,e,1,e,318,1,e,424
DualSimon,1002,1,"<?xml version=""1.0""?>\n<Clock xmlns:dt=""urn:schemas-microsoft-com:datatypes""><Description dt:dt=""string"">E-Prime Primary Realtime Clock</Description><StartTime><Timestamp dt:dt=""int"">0</Timestamp><DateUtc dt:dt=""string"">2017-10-09T11:47:04Z</DateUtc></StartTime><FrequencyChanges><FrequencyChange><Frequency dt:dt=""r8"">2923154</Frequency><Timestamp dt:dt=""r8"">10525532348</Timestamp><Current dt:dt=""r8"">0</Current><DateUtc dt:dt=""string"">2017-10-09T11:47:04Z</DateUtc></FrequencyChange></FrequencyChanges></Clock>\n",DualSimon-001002-1,59.955,59.955,1.0.0.505,1,1936161497,Professional,2.0.10.353,2.0.10.353,10/09/2017,09/10/2017 11:47,12:47:04,2.0.10.248,1,1,1,1,CM1,List1,3,NULL,NULL,NULL,3,1,3,b1,BlockList4,29,NULL,NULL,NULL,46,2,29,NULL,NULL,NULL,NULL,NULL,NULL,w,e,TrialProc,CM1Trails,red,blue,w,e,1,w,292,1,e,374
DualSimon,1002,1,"<?xml version=""1.0""?>\n<Clock xmlns:dt=""urn:schemas-microsoft-com:datatypes""><Description dt:dt=""string"">E-Prime Primary Realtime Clock</Description><StartTime><Timestamp dt:dt=""int"">0</Timestamp><DateUtc dt:dt=""string"">2017-10-09T11:47:04Z</DateUtc></StartTime><FrequencyChanges><FrequencyChange><Frequency dt:dt=""r8"">2923154</Frequency><Timestamp dt:dt=""r8"">10525532348</Timestamp><Current dt:dt=""r8"">0</Current><DateUtc dt:dt=""string"">2017-10-09T11:47:04Z</DateUtc></FrequencyChange></FrequencyChanges></Clock>\n",DualSimon-001002-1,59.955,59.955,1.0.0.505,1,1936161497,Professional,2.0.10.353,2.0.10.353,10/09/2017,09/10/2017 11:47,12:47:04,2.0.10.248,1,1,1,1,CM1,List1,3,NULL,NULL,NULL,3,1,3,b1,BlockList4,30,NULL,NULL,NULL,28,2,30,NULL,NULL,NULL,NULL,NULL,NULL,w,w,TrialProc,CM1Trails,red,red,w,w,1,w,363,1,w,432
DualSimon,1002,1,"<?xml version=""1.0""?>\n<Clock xmlns:dt=""urn:schemas-microsoft-com:datatypes""><Description dt:dt=""string"">E-Prime Primary Realtime Clock</Description><StartTime><Timestamp dt:dt=""int"">0</Timestamp><DateUtc dt:dt=""string"">2017-10-09T11:47:04Z</DateUtc></StartTime><FrequencyChanges><FrequencyChange><Frequency dt:dt=""r8"">2923154</Frequency><Timestamp dt:dt=""r8"">10525532348</Timestamp><Current dt:dt=""r8"">0</Current><DateUtc dt:dt=""string"">2017-10-09T11:47:04Z</DateUtc></FrequencyChange></FrequencyChanges></Clock>\n",DualSimon-001002-1,59.955,59.955,1.0.0.505,1,1936161497,Professional,2.0.10.353,2.0.10.353,10/09/2017,09/10/2017 11:47,12:47:04,2.0.10.248,1,1,1,1,CM1,List1,3,NULL,NULL,NULL,3,1,3,b1,BlockList4,31,NULL,NULL,NULL,17,2,31,NULL,NULL,NULL,NULL,NULL,NULL,e,e,TrialProc,CM1Trails,blue,blue,e,e,1,e,350,1,e,303
DualSimon,1002,1,"<?xml version=""1.0""?>\n<Clock xmlns:dt=""urn:schemas-microsoft-com:datatypes""><Description dt:dt=""string"">E-Prime Primary Realtime Clock</Description><StartTime><Timestamp dt:dt=""int"">0</Timestamp><DateUtc dt:dt=""string"">2017-10-09T11:47:04Z</DateUtc></StartTime><FrequencyChanges><FrequencyChange><Frequency dt:dt=""r8"">2923154</Frequency><Timestamp dt:dt=""r8"">10525532348</Timestamp><Current dt:dt=""r8"">0</Current><DateUtc dt:dt=""string"">2017-10-09T11:47:04Z</DateUtc></FrequencyChange></FrequencyChanges></Clock>\n",DualSimon-001002-1,59.955,59.955,1.0.0.505,1,1936161497,Professional,2.0.10.353,2.0.10.353,10/09/2017,09/10/2017 11:47,12:47:04,2.0.10.248,1,1,1,1,CM1,List1,3,NULL,NULL,NULL,3,1,3,b1,BlockList4,32,NULL,NULL,NULL,30,2,32,NULL,NULL,NULL,NULL,NULL,NULL,w,w,TrialProc,CM1Trails,red,red,w,w,1,w,439,1,w,378
DualSimon,1002,1,"<?xml version=""1.0""?>\n<Clock xmlns:dt=""urn:schemas-microsoft-com:datatypes""><Description dt:dt=""string"">E-Prime Primary Realtime Clock</Description><StartTime><Timestamp dt:dt=""int"">0</Timestamp><DateUtc dt:dt=""string"">2017-10-09T11:47:04Z</DateUtc></StartTime><FrequencyChanges><FrequencyChange><Frequency dt:dt=""r8"">2923154</Frequency><Timestamp dt:dt=""r8"">10525532348</Timestamp><Current dt:dt=""r8"">0</Current><DateUtc dt:dt=""string"">2017-10-09T11:47:04Z</DateUtc></FrequencyChange></FrequencyChanges></Clock>\n",DualSimon-001002-1,59.955,59.955,1.0.0.505,1,1936161497,Professional,2.0.10.353,2.0.10.353,10/09/2017,09/10/2017 11:47,12:47:04,2.0.10.248,1,1,1,1,CM1,List1,3,NULL,NULL,NULL,3,1,3,b1,BlockList4,33,NULL,NULL,NULL,31,2,33,NULL,NULL,NULL,NULL,NULL,NULL,e,w,TrialProc,CM1Trails,blue,red,e,w,1,e,368,1,w,388
DualSimon,1002,1,"<?xml version=""1.0""?>\n<Clock xmlns:dt=""urn:schemas-microsoft-com:datatypes""><Description dt:dt=""string"">E-Prime Primary Realtime Clock</Description><StartTime><Timestamp dt:dt=""int"">0</Timestamp><DateUtc dt:dt=""string"">2017-10-09T11:47:04Z</DateUtc></StartTime><FrequencyChanges><FrequencyChange><Frequency dt:dt=""r8"">2923154</Frequency><Timestamp dt:dt=""r8"">10525532348</Timestamp><Current dt:dt=""r8"">0</Current><DateUtc dt:dt=""string"">2017-10-09T11:47:04Z</DateUtc></FrequencyChange></FrequencyChanges></Clock>\n",DualSimon-001002-1,59.955,59.955,1.0.0.505,1,1936161497,Professional,2.0.10.353,2.0.10.353,10/09/2017,09/10/2017 11:47,12:47:04,2.0.10.248,1,1,1,1,CM1,List1,3,NULL,NULL,NULL,3,1,3,b1,BlockList4,34,NULL,NULL,NULL,89,2,34,NULL,NULL,NULL,NULL,NULL,NULL,w,e,TrialProc,CM1Trails,red,blue,e,w,1,w,523,1,e,490
DualSimon,1002,1,"<?xml version=""1.0""?>\n<Clock xmlns:dt=""urn:schemas-microsoft-com:datatypes""><Description dt:dt=""string"">E-Prime Primary Realtime Clock</Description><StartTime><Timestamp dt:dt=""int"">0</Timestamp><DateUtc dt:dt=""string"">2017-10-09T11:47:04Z</DateUtc></StartTime><FrequencyChanges><FrequencyChange><Frequency dt:dt=""r8"">2923154</Frequency><Timestamp dt:dt=""r8"">10525532348</Timestamp><Current dt:dt=""r8"">0</Current><DateUtc dt:dt=""string"">2017-10-09T11:47:04Z</DateUtc></FrequencyChange></FrequencyChanges></Clock>\n",DualSimon-001002-1,59.955,59.955,1.0.0.505,1,1936161497,Professional,2.0.10.353,2.0.10.353,10/09/2017,09/10/2017 11:47,12:47:04,2.0.10.248,1,1,1,1,CM1,List1,3,NULL,NULL,NULL,3,1,3,b1,BlockList4,35,NULL,NULL,NULL,23,2,35,NULL,NULL,NULL,NULL,NULL,NULL,w,w,TrialProc,CM1Trails,red,red,w,w,1,w,507,1,w,580
DualSimon,1002,1,"<?xml version=""1.0""?>\n<Clock xmlns:dt=""urn:schemas-microsoft-com:datatypes""><Description dt:dt=""string"">E-Prime Primary Realtime Clock</Description><StartTime><Timestamp dt:dt=""int"">0</Timestamp><DateUtc dt:dt=""string"">2017-10-09T11:47:04Z</DateUtc></StartTime><FrequencyChanges><FrequencyChange><Frequency dt:dt=""r8"">2923154</Frequency><Timestamp dt:dt=""r8"">10525532348</Timestamp><Current dt:dt=""r8"">0</Current><DateUtc dt:dt=""string"">2017-10-09T11:47:04Z</DateUtc></FrequencyChange></FrequencyChanges></Clock>\n",DualSimon-001002-1,59.955,59.955,1.0.0.505,1,1936161497,Professional,2.0.10.353,2.0.10.353,10/09/2017,09/10/2017 11:47,12:47:04,2.0.10.248,1,1,1,1,CM1,List1,3,NULL,NULL,NULL,3,1,3,b1,BlockList4,36,NULL,NULL,NULL,78,2,36,NULL,NULL,NULL,NULL,NULL,NULL,e,w,TrialProc,CM1Trails,blue,red,w,e,1,e,444,1,w,512
DualSimon,1002,1,"<?xml version=""1.0""?>\n<Clock xmlns:dt=""urn:schemas-microsoft-com:datatypes""><Description dt:dt=""string"">E-Prime Primary Realtime Clock</Description><StartTime><Timestamp dt:dt=""int"">0</Timestamp><DateUtc dt:dt=""string"">2017-10-09T11:47:04Z</DateUtc></StartTime><FrequencyChanges><FrequencyChange><Frequency dt:dt=""r8"">2923154</Frequency><Timestamp dt:dt=""r8"">10525532348</Timestamp><Current dt:dt=""r8"">0</Current><DateUtc dt:dt=""string"">2017-10-09T11:47:04Z</DateUtc></FrequencyChange></FrequencyChanges></Clock>\n",DualSimon-001002-1,59.955,59.955,1.0.0.505,1,1936161497,Professional,2.0.10.353,2.0.10.353,10/09/2017,09/10/2017 11:47,12:47:04,2.0.10.248,1,1,1,1,CM1,List1,3,NULL,NULL,NULL,3,1,3,b1,BlockList4,37,NULL,NULL,NULL,63,2,37,NULL,NULL,NULL,NULL,NULL,NULL,e,e,TrialProc,CM1Trails,blue,blue,w,w,1,e,454,1,e,411
DualSimon,1002,1,"<?xml version=""1.0""?>\n<Clock xmlns:dt=""urn:schemas-microsoft-com:datatypes""><Description dt:dt=""string"">E-Prime Primary Realtime Clock</Description><StartTime><Timestamp dt:dt=""int"">0</Timestamp><DateUtc dt:dt=""string"">2017-10-09T11:47:04Z</DateUtc></StartTime><FrequencyChanges><FrequencyChange><Frequency dt:dt=""r8"">2923154</Frequency><Timestamp dt:dt=""r8"">10525532348</Timestamp><Current dt:dt=""r8"">0</Current><DateUtc dt:dt=""string"">2017-10-09T11:47:04Z</DateUtc></FrequencyChange></FrequencyChanges></Clock>\n",DualSimon-001002-1,59.955,59.955,1.0.0.505,1,1936161497,Professional,2.0.10.353,2.0.10.353,10/09/2017,09/10/2017 11:47,12:47:04,2.0.10.248,1,1,1,1,CM1,List1,3,NULL,NULL,NULL,3,1,3,b1,BlockList4,38,NULL,NULL,NULL,66,2,38,NULL,NULL,NULL,NULL,NULL,NULL,w,w,TrialProc,CM1Trails,red,red,e,e,1,w,461,1,w,489
DualSimon,1002,1,"<?xml version=""1.0""?>\n<Clock xmlns:dt=""urn:schemas-microsoft-com:datatypes""><Description dt:dt=""string"">E-Prime Primary Realtime Clock</Description><StartTime><Timestamp dt:dt=""int"">0</Timestamp><DateUtc dt:dt=""string"">2017-10-09T11:47:04Z</DateUtc></StartTime><FrequencyChanges><FrequencyChange><Frequency dt:dt=""r8"">2923154</Frequency><Timestamp dt:dt=""r8"">10525532348</Timestamp><Current dt:dt=""r8"">0</Current><DateUtc dt:dt=""string"">2017-10-09T11:47:04Z</DateUtc></FrequencyChange></FrequencyChanges></Clock>\n",DualSimon-001002-1,59.955,59.955,1.0.0.505,1,1936161497,Professional,2.0.10.353,2.0.10.353,10/09/2017,09/10/2017 11:47,12:47:04,2.0.10.248,1,1,1,1,CM1,List1,3,NULL,NULL,NULL,3,1,3,b1,BlockList4,39,NULL,NULL,NULL,70,2,39,NULL,NULL,NULL,NULL,NULL,NULL,w,w,TrialProc,CM1Trails,red,red,e,e,1,w,408,1,w,405
DualSimon,1002,1,"<?xml version=""1.0""?>\n<Clock xmlns:dt=""urn:schemas-microsoft-com:datatypes""><Description dt:dt=""string"">E-Prime Primary Realtime Clock</Description><StartTime><Timestamp dt:dt=""int"">0</Timestamp><DateUtc dt:dt=""string"">2017-10-09T11:47:04Z</DateUtc></StartTime><FrequencyChanges><FrequencyChange><Frequency dt:dt=""r8"">2923154</Frequency><Timestamp dt:dt=""r8"">10525532348</Timestamp><Current dt:dt=""r8"">0</Current><DateUtc dt:dt=""string"">2017-10-09T11:47:04Z</DateUtc></FrequencyChange></FrequencyChanges></Clock>\n",DualSimon-001002-1,59.955,59.955,1.0.0.505,1,1936161497,Professional,2.0.10.353,2.0.10.353,10/09/2017,09/10/2017 11:47,12:47:04,2.0.10.248,1,1,1,1,CM1,List1,3,NULL,NULL,NULL,3,1,3,b1,BlockList4,40,NULL,NULL,NULL,19,2,40,NULL,NULL,NULL,NULL,NULL,NULL,e,e,TrialProc,CM1Trails,blue,blue,e,e,1,e,347,1,e,308
DualSimon,1002,1,"<?xml version=""1.0""?>\n<Clock xmlns:dt=""urn:schemas-microsoft-com:datatypes""><Description dt:dt=""string"">E-Prime Primary Realtime Clock</Description><StartTime><Timestamp dt:dt=""int"">0</Timestamp><DateUtc dt:dt=""string"">2017-10-09T11:47:04Z</DateUtc></StartTime><FrequencyChanges><FrequencyChange><Frequency dt:dt=""r8"">2923154</Frequency><Timestamp dt:dt=""r8"">10525532348</Timestamp><Current dt:dt=""r8"">0</Current><DateUtc dt:dt=""string"">2017-10-09T11:47:04Z</DateUtc></FrequencyChange></FrequencyChanges></Clock>\n",DualSimon-001002-1,59.955,59.955,1.0.0.505,1,1936161497,Professional,2.0.10.353,2.0.10.353,10/09/2017,09/10/2017 11:47,12:47:04,2.0.10.248,1,1,1,1,CM1,List1,3,NULL,NULL,NULL,3,1,3,b1,BlockList4,41,NULL,NULL,NULL,22,2,41,NULL,NULL,NULL,NULL,NULL,NULL,w,w,TrialProc,CM1Trails,red,red,w,w,1,w,438,1,w,307
DualSimon,1002,1,"<?xml version=""1.0""?>\n<Clock xmlns:dt=""urn:schemas-microsoft-com:datatypes""><Description dt:dt=""string"">E-Prime Primary Realtime Clock</Description><StartTime><Timestamp dt:dt=""int"">0</Timestamp><DateUtc dt:dt=""string"">2017-10-09T11:47:04Z</DateUtc></StartTime><FrequencyChanges><FrequencyChange><Frequency dt:dt=""r8"">2923154</Frequency><Timestamp dt:dt=""r8"">10525532348</Timestamp><Current dt:dt=""r8"">0</Current><DateUtc dt:dt=""string"">2017-10-09T11:47:04Z</DateUtc></FrequencyChange></FrequencyChanges></Clock>\n",DualSimon-001002-1,59.955,59.955,1.0.0.505,1,1936161497,Professional,2.0.10.353,2.0.10.353,10/09/2017,09/10/2017 11:47,12:47:04,2.0.10.248,1,1,1,1,CM1,List1,3,NULL,NULL,NULL,3,1,3,b1,BlockList4,42,NULL,NULL,NULL,26,2,42,NULL,NULL,NULL,NULL,NULL,NULL,w,w,TrialProc,CM1Trails,red,red,w,w,1,w,425,1,w,359
DualSimon,1002,1,"<?xml version=""1.0""?>\n<Clock xmlns:dt=""urn:schemas-microsoft-com:datatypes""><Description dt:dt=""string"">E-Prime Primary Realtime Clock</Description><StartTime><Timestamp dt:dt=""int"">0</Timestamp><DateUtc dt:dt=""string"">2017-10-09T11:47:04Z</DateUtc></StartTime><FrequencyChanges><FrequencyChange><Frequency dt:dt=""r8"">2923154</Frequency><Timestamp dt:dt=""r8"">10525532348</Timestamp><Current dt:dt=""r8"">0</Current><DateUtc dt:dt=""string"">2017-10-09T11:47:04Z</DateUtc></FrequencyChange></FrequencyChanges></Clock>\n",DualSimon-001002-1,59.955,59.955,1.0.0.505,1,1936161497,Professional,2.0.10.353,2.0.10.353,10/09/2017,09/10/2017 11:47,12:47:04,2.0.10.248,1,1,1,1,CM1,List1,3,NULL,NULL,NULL,3,1,3,b1,BlockList4,43,NULL,NULL,NULL,76,2,43,NULL,NULL,NULL,NULL,NULL,NULL,e,w,TrialProc,CM1Trails,blue,red,w,e,1,e,533,1,w,441
DualSimon,1002,1,"<?xml version=""1.0""?>\n<Clock xmlns:dt=""urn:schemas-microsoft-com:datatypes""><Description dt:dt=""string"">E-Prime Primary Realtime Clock</Description><StartTime><Timestamp dt:dt=""int"">0</Timestamp><DateUtc dt:dt=""string"">2017-10-09T11:47:04Z</DateUtc></StartTime><FrequencyChanges><FrequencyChange><Frequency dt:dt=""r8"">2923154</Frequency><Timestamp dt:dt=""r8"">10525532348</Timestamp><Current dt:dt=""r8"">0</Current><DateUtc dt:dt=""string"">2017-10-09T11:47:04Z</DateUtc></FrequencyChange></FrequencyChanges></Clock>\n",DualSimon-001002-1,59.955,59.955,1.0.0.505,1,1936161497,Professional,2.0.10.353,2.0.10.353,10/09/2017,09/10/2017 11:47,12:47:04,2.0.10.248,1,1,1,1,CM1,List1,3,NULL,NULL,NULL,3,1,3,b1,BlockList4,44,NULL,NULL,NULL,7,2,44,NULL,NULL,NULL,NULL,NULL,NULL,e,w,TrialProc,CM1Trails,blue,red,w,e,1,e,324,1,w,440
DualSimon,1002,1,"<?xml version=""1.0""?>\n<Clock xmlns:dt=""urn:schemas-microsoft-com:datatypes""><Description dt:dt=""string"">E-Prime Primary Realtime Clock</Description><StartTime><Timestamp dt:dt=""int"">0</Timestamp><DateUtc dt:dt=""string"">2017-10-09T11:47:04Z</DateUtc></StartTime><FrequencyChanges><FrequencyChange><Frequency dt:dt=""r8"">2923154</Frequency><Timestamp dt:dt=""r8"">10525532348</Timestamp><Current dt:dt=""r8"">0</Current><DateUtc dt:dt=""string"">2017-10-09T11:47:04Z</DateUtc></FrequencyChange></FrequencyChanges></Clock>\n",DualSimon-001002-1,59.955,59.955,1.0.0.505,1,1936161497,Professional,2.0.10.353,2.0.10.353,10/09/2017,09/10/2017 11:47,12:47:04,2.0.10.248,1,1,1,1,CM1,List1,3,NULL,NULL,NULL,3,1,3,b1,BlockList4,45,NULL,NULL,NULL,79,2,45,NULL,NULL,NULL,NULL,NULL,NULL,e,w,TrialProc,CM1Trails,blue,red,w,e,1,e,798,1,w,2137
DualSimon,1002,1,"<?xml version=""1.0""?>\n<Clock xmlns:dt=""urn:schemas-microsoft-com:datatypes""><Description dt:dt=""string"">E-Prime Primary Realtime Clock</Description><StartTime><Timestamp dt:dt=""int"">0</Timestamp><DateUtc dt:dt=""string"">2017-10-09T11:47:04Z</DateUtc></StartTime><FrequencyChanges><FrequencyChange><Frequency dt:dt=""r8"">2923154</Frequency><Timestamp dt:dt=""r8"">10525532348</Timestamp><Current dt:dt=""r8"">0</Current><DateUtc dt:dt=""string"">2017-10-09T11:47:04Z</DateUtc></FrequencyChange></FrequencyChanges></Clock>\n",DualSimon-001002-1,59.955,59.955,1.0.0.505,1,1936161497,Professional,2.0.10.353,2.0.10.353,10/09/2017,09/10/2017 11:47,12:47:04,2.0.10.248,1,1,1,1,CM1,List1,3,NULL,NULL,NULL,3,1,3,b1,BlockList4,46,NULL,NULL,NULL,43,2,46,NULL,NULL,NULL,NULL,NULL,NULL,w,e,TrialProc,CM1Trails,red,blue,w,e,1,w,296,1,e,387
DualSimon,1002,1,"<?xml version=""1.0""?>\n<Clock xmlns:dt=""urn:schemas-microsoft-com:datatypes""><Description dt:dt=""string"">E-Prime Primary Realtime Clock</Description><StartTime><Timestamp dt:dt=""int"">0</Timestamp><DateUtc dt:dt=""string"">2017-10-09T11:47:04Z</DateUtc></StartTime><FrequencyChanges><FrequencyChange><Frequency dt:dt=""r8"">2923154</Frequency><Timestamp dt:dt=""r8"">10525532348</Timestamp><Current dt:dt=""r8"">0</Current><DateUtc dt:dt=""string"">2017-10-09T11:47:04Z</DateUtc></FrequencyChange></FrequencyChanges></Clock>\n",DualSimon-001002-1,59.955,59.955,1.0.0.505,1,1936161497,Professional,2.0.10.353,2.0.10.353,10/09/2017,09/10/2017 11:47,12:47:04,2.0.10.248,1,1,1,1,CM1,List1,3,NULL,NULL,NULL,3,1,3,b1,BlockList4,47,NULL,NULL,NULL,42,2,47,NULL,NULL,NULL,NULL,NULL,NULL,w,e,TrialProc,CM1Trails,red,blue,w,e,1,w,525,1,e,471
DualSimon,1002,1,"<?xml version=""1.0""?>\n<Clock xmlns:dt=""urn:schemas-microsoft-com:datatypes""><Description dt:dt=""string"">E-Prime Primary Realtime Clock</Description><StartTime><Timestamp dt:dt=""int"">0</Timestamp><DateUtc dt:dt=""string"">2017-10-09T11:47:04Z</DateUtc></StartTime><FrequencyChanges><FrequencyChange><Frequency dt:dt=""r8"">2923154</Frequency><Timestamp dt:dt=""r8"">10525532348</Timestamp><Current dt:dt=""r8"">0</Current><DateUtc dt:dt=""string"">2017-10-09T11:47:04Z</DateUtc></FrequencyChange></FrequencyChanges></Clock>\n",DualSimon-001002-1,59.955,59.955,1.0.0.505,1,1936161497,Professional,2.0.10.353,2.0.10.353,10/09/2017,09/10/2017 11:47,12:47:04,2.0.10.248,1,1,1,1,CM1,List1,3,NULL,NULL,NULL,3,1,3,b1,BlockList4,48,NULL,NULL,NULL,5,2,48,NULL,NULL,NULL,NULL,NULL,NULL,e,e,TrialProc,CM1Trails,blue,blue,w,w,1,e,450,1,e,614
DualSimon,1002,1,"<?xml version=""1.0""?>\n<Clock xmlns:dt=""urn:schemas-microsoft-com:datatypes""><Description dt:dt=""string"">E-Prime Primary Realtime Clock</Description><StartTime><Timestamp dt:dt=""int"">0</Timestamp><DateUtc dt:dt=""string"">2017-10-09T11:47:04Z</DateUtc></StartTime><FrequencyChanges><FrequencyChange><Frequency dt:dt=""r8"">2923154</Frequency><Timestamp dt:dt=""r8"">10525532348</Timestamp><Current dt:dt=""r8"">0</Current><DateUtc dt:dt=""string"">2017-10-09T11:47:04Z</DateUtc></FrequencyChange></FrequencyChanges></Clock>\n",DualSimon-001002-1,59.955,59.955,1.0.0.505,1,1936161497,Professional,2.0.10.353,2.0.10.353,10/09/2017,09/10/2017 11:47,12:47:04,2.0.10.248,1,1,1,1,CM1,List1,3,NULL,NULL,NULL,3,1,3,b1,BlockList4,49,NULL,NULL,NULL,59,2,49,NULL,NULL,NULL,NULL,NULL,NULL,e,e,TrialProc,CM1Trails,blue,blue,w,w,1,e,320,1,e,368
DualSimon,1002,1,"<?xml version=""1.0""?>\n<Clock xmlns:dt=""urn:schemas-microsoft-com:datatypes""><Description dt:dt=""string"">E-Prime Primary Realtime Clock</Description><StartTime><Timestamp dt:dt=""int"">0</Timestamp><DateUtc dt:dt=""string"">2017-10-09T11:47:04Z</DateUtc></StartTime><FrequencyChanges><FrequencyChange><Frequency dt:dt=""r8"">2923154</Frequency><Timestamp dt:dt=""r8"">10525532348</Timestamp><Current dt:dt=""r8"">0</Current><DateUtc dt:dt=""string"">2017-10-09T11:47:04Z</DateUtc></FrequencyChange></FrequencyChanges></Clock>\n",DualSimon-001002-1,59.955,59.955,1.0.0.505,1,1936161497,Professional,2.0.10.353,2.0.10.353,10/09/2017,09/10/2017 11:47,12:47:04,2.0.10.248,1,1,1,1,CM1,List1,3,NULL,NULL,NULL,3,1,3,b1,BlockList4,50,NULL,NULL,NULL,41,2,50,NULL,NULL,NULL,NULL,NULL,NULL,e,w,TrialProc,CM1Trails,blue,red,e,w,1,e,309,0,e,343
DualSimon,1002,1,"<?xml version=""1.0""?>\n<Clock xmlns:dt=""urn:schemas-microsoft-com:datatypes""><Description dt:dt=""string"">E-Prime Primary Realtime Clock</Description><StartTime><Timestamp dt:dt=""int"">0</Timestamp><DateUtc dt:dt=""string"">2017-10-09T11:47:04Z</DateUtc></StartTime><FrequencyChanges><FrequencyChange><Frequency dt:dt=""r8"">2923154</Frequency><Timestamp dt:dt=""r8"">10525532348</Timestamp><Current dt:dt=""r8"">0</Current><DateUtc dt:dt=""string"">2017-10-09T11:47:04Z</DateUtc></FrequencyChange></FrequencyChanges></Clock>\n",DualSimon-001002-1,59.955,59.955,1.0.0.505,1,1936161497,Professional,2.0.10.353,2.0.10.353,10/09/2017,09/10/2017 11:47,12:47:04,2.0.10.248,1,1,1,1,CM1,List1,3,NULL,NULL,NULL,3,1,3,b1,BlockList4,51,NULL,NULL,NULL,14,2,51,NULL,NULL,NULL,NULL,NULL,NULL,e,e,TrialProc,CM1Trails,blue,blue,e,e,1,e,379,1,e,357
DualSimon,1002,1,"<?xml version=""1.0""?>\n<Clock xmlns:dt=""urn:schemas-microsoft-com:datatypes""><Description dt:dt=""string"">E-Prime Primary Realtime Clock</Description><StartTime><Timestamp dt:dt=""int"">0</Timestamp><DateUtc dt:dt=""string"">2017-10-09T11:47:04Z</DateUtc></StartTime><FrequencyChanges><FrequencyChange><Frequency dt:dt=""r8"">2923154</Frequency><Timestamp dt:dt=""r8"">10525532348</Timestamp><Current dt:dt=""r8"">0</Current><DateUtc dt:dt=""string"">2017-10-09T11:47:04Z</DateUtc></FrequencyChange></FrequencyChanges></Clock>\n",DualSimon-001002-1,59.955,59.955,1.0.0.505,1,1936161497,Professional,2.0.10.353,2.0.10.353,10/09/2017,09/10/2017 11:47,12:47:04,2.0.10.248,1,1,1,1,CM1,List1,3,NULL,NULL,NULL,3,1,3,b1,BlockList4,52,NULL,NULL,NULL,24,2,52,NULL,NULL,NULL,NULL,NULL,NULL,w,w,TrialProc,CM1Trails,red,red,w,w,1,w,280,1,w,407
DualSimon,1002,1,"<?xml version=""1.0""?>\n<Clock xmlns:dt=""urn:schemas-microsoft-com:datatypes""><Description dt:dt=""string"">E-Prime Primary Realtime Clock</Description><StartTime><Timestamp dt:dt=""int"">0</Timestamp><DateUtc dt:dt=""string"">2017-10-09T11:47:04Z</DateUtc></StartTime><FrequencyChanges><FrequencyChange><Frequency dt:dt=""r8"">2923154</Frequency><Timestamp dt:dt=""r8"">10525532348</Timestamp><Current dt:dt=""r8"">0</Current><DateUtc dt:dt=""string"">2017-10-09T11:47:04Z</DateUtc></FrequencyChange></FrequencyChanges></Clock>\n",DualSimon-001002-1,59.955,59.955,1.0.0.505,1,1936161497,Professional,2.0.10.353,2.0.10.353,10/09/2017,09/10/2017 11:47,12:47:04,2.0.10.248,1,1,1,1,CM1,List1,3,NULL,NULL,NULL,3,1,3,b1,BlockList4,53,NULL,NULL,NULL,71,2,53,NULL,NULL,NULL,NULL,NULL,NULL,w,w,TrialProc,CM1Trails,red,red,e,e,1,w,494,1,w,428
DualSimon,1002,1,"<?xml version=""1.0""?>\n<Clock xmlns:dt=""urn:schemas-microsoft-com:datatypes""><Description dt:dt=""string"">E-Prime Primary Realtime Clock</Description><StartTime><Timestamp dt:dt=""int"">0</Timestamp><DateUtc dt:dt=""string"">2017-10-09T11:47:04Z</DateUtc></StartTime><FrequencyChanges><FrequencyChange><Frequency dt:dt=""r8"">2923154</Frequency><Timestamp dt:dt=""r8"">10525532348</Timestamp><Current dt:dt=""r8"">0</Current><DateUtc dt:dt=""string"">2017-10-09T11:47:04Z</DateUtc></FrequencyChange></FrequencyChanges></Clock>\n",DualSimon-001002-1,59.955,59.955,1.0.0.505,1,1936161497,Professional,2.0.10.353,2.0.10.353,10/09/2017,09/10/2017 11:47,12:47:04,2.0.10.248,1,1,1,1,CM1,List1,3,NULL,NULL,NULL,3,1,3,b1,BlockList4,54,NULL,NULL,NULL,18,2,54,NULL,NULL,NULL,NULL,NULL,NULL,e,e,TrialProc,CM1Trails,blue,blue,e,e,1,e,340,1,e,368
DualSimon,1002,1,"<?xml version=""1.0""?>\n<Clock xmlns:dt=""urn:schemas-microsoft-com:datatypes""><Description dt:dt=""string"">E-Prime Primary Realtime Clock</Description><StartTime><Timestamp dt:dt=""int"">0</Timestamp><DateUtc dt:dt=""string"">2017-10-09T11:47:04Z</DateUtc></StartTime><FrequencyChanges><FrequencyChange><Frequency dt:dt=""r8"">2923154</Frequency><Timestamp dt:dt=""r8"">10525532348</Timestamp><Current dt:dt=""r8"">0</Current><DateUtc dt:dt=""string"">2017-10-09T11:47:04Z</DateUtc></FrequencyChange></FrequencyChanges></Clock>\n",DualSimon-001002-1,59.955,59.955,1.0.0.505,1,1936161497,Professional,2.0.10.353,2.0.10.353,10/09/2017,09/10/2017 11:47,12:47:04,2.0.10.248,1,1,1,1,CM1,List1,3,NULL,NULL,NULL,3,1,3,b1,BlockList4,55,NULL,NULL,NULL,27,2,55,NULL,NULL,NULL,NULL,NULL,NULL,w,w,TrialProc,CM1Trails,red,red,w,w,1,w,495,1,w,379
DualSimon,1002,1,"<?xml version=""1.0""?>\n<Clock xmlns:dt=""urn:schemas-microsoft-com:datatypes""><Description dt:dt=""string"">E-Prime Primary Realtime Clock</Description><StartTime><Timestamp dt:dt=""int"">0</Timestamp><DateUtc dt:dt=""string"">2017-10-09T11:47:04Z</DateUtc></StartTime><FrequencyChanges><FrequencyChange><Frequency dt:dt=""r8"">2923154</Frequency><Timestamp dt:dt=""r8"">10525532348</Timestamp><Current dt:dt=""r8"">0</Current><DateUtc dt:dt=""string"">2017-10-09T11:47:04Z</DateUtc></FrequencyChange></FrequencyChanges></Clock>\n",DualSimon-001002-1,59.955,59.955,1.0.0.505,1,1936161497,Professional,2.0.10.353,2.0.10.353,10/09/2017,09/10/2017 11:47,12:47:04,2.0.10.248,1,1,1,1,CM1,List1,3,NULL,NULL,NULL,3,1,3,b1,BlockList4,56,NULL,NULL,NULL,38,2,56,NULL,NULL,NULL,NULL,NULL,NULL,e,w,TrialProc,CM1Trails,blue,red,e,w,1,e,403,1,w,313
DualSimon,1002,1,"<?xml version=""1.0""?>\n<Clock xmlns:dt=""urn:schemas-microsoft-com:datatypes""><Description dt:dt=""string"">E-Prime Primary Realtime Clock</Description><StartTime><Timestamp dt:dt=""int"">0</Timestamp><DateUtc dt:dt=""string"">2017-10-09T11:47:04Z</DateUtc></StartTime><FrequencyChanges><FrequencyChange><Frequency dt:dt=""r8"">2923154</Frequency><Timestamp dt:dt=""r8"">10525532348</Timestamp><Current dt:dt=""r8"">0</Current><DateUtc dt:dt=""string"">2017-10-09T11:47:04Z</DateUtc></FrequencyChange></FrequencyChanges></Clock>\n",DualSimon-001002-1,59.955,59.955,1.0.0.505,1,1936161497,Professional,2.0.10.353,2.0.10.353,10/09/2017,09/10/2017 11:47,12:47:04,2.0.10.248,1,1,1,1,CM1,List1,3,NULL,NULL,NULL,3,1,3,b1,BlockList4,57,NULL,NULL,NULL,67,2,57,NULL,NULL,NULL,NULL,NULL,NULL,w,w,TrialProc,CM1Trails,red,red,e,e,1,w,428,1,w,418
DualSimon,1002,1,"<?xml version=""1.0""?>\n<Clock xmlns:dt=""urn:schemas-microsoft-com:datatypes""><Description dt:dt=""string"">E-Prime Primary Realtime Clock</Description><StartTime><Timestamp dt:dt=""int"">0</Timestamp><DateUtc dt:dt=""string"">2017-10-09T11:47:04Z</DateUtc></StartTime><FrequencyChanges><FrequencyChange><Frequency dt:dt=""r8"">2923154</Frequency><Timestamp dt:dt=""r8"">10525532348</Timestamp><Current dt:dt=""r8"">0</Current><DateUtc dt:dt=""string"">2017-10-09T11:47:04Z</DateUtc></FrequencyChange></FrequencyChanges></Clock>\n",DualSimon-001002-1,59.955,59.955,1.0.0.505,1,1936161497,Professional,2.0.10.353,2.0.10.353,10/09/2017,09/10/2017 11:47,12:47:04,2.0.10.248,1,1,1,1,CM1,List1,3,NULL,NULL,NULL,3,1,3,b1,BlockList4,58,NULL,NULL,NULL,11,2,58,NULL,NULL,NULL,NULL,NULL,NULL,e,e,TrialProc,CM1Trails,blue,blue,e,e,1,e,329,1,e,463
DualSimon,1002,1,"<?xml version=""1.0""?>\n<Clock xmlns:dt=""urn:schemas-microsoft-com:datatypes""><Description dt:dt=""string"">E-Prime Primary Realtime Clock</Description><StartTime><Timestamp dt:dt=""int"">0</Timestamp><DateUtc dt:dt=""string"">2017-10-09T11:47:04Z</DateUtc></StartTime><FrequencyChanges><FrequencyChange><Frequency dt:dt=""r8"">2923154</Frequency><Timestamp dt:dt=""r8"">10525532348</Timestamp><Current dt:dt=""r8"">0</Current><DateUtc dt:dt=""string"">2017-10-09T11:47:04Z</DateUtc></FrequencyChange></FrequencyChanges></Clock>\n",DualSimon-001002-1,59.955,59.955,1.0.0.505,1,1936161497,Professional,2.0.10.353,2.0.10.353,10/09/2017,09/10/2017 11:47,12:47:04,2.0.10.248,1,1,1,1,CM1,List1,3,NULL,NULL,NULL,3,1,3,b1,BlockList4,59,NULL,NULL,NULL,82,2,59,NULL,NULL,NULL,NULL,NULL,NULL,e,w,TrialProc,CM1Trails,blue,red,w,e,1,e,383,1,w,648
DualSimon,1002,1,"<?xml version=""1.0""?>\n<Clock xmlns:dt=""urn:schemas-microsoft-com:datatypes""><Description dt:dt=""string"">E-Prime Primary Realtime Clock</Description><StartTime><Timestamp dt:dt=""int"">0</Timestamp><DateUtc dt:dt=""string"">2017-10-09T11:47:04Z</DateUtc></StartTime><FrequencyChanges><FrequencyChange><Frequency dt:dt=""r8"">2923154</Frequency><Timestamp dt:dt=""r8"">10525532348</Timestamp><Current dt:dt=""r8"">0</Current><DateUtc dt:dt=""string"">2017-10-09T11:47:04Z</DateUtc></FrequencyChange></FrequencyChanges></Clock>\n",DualSimon-001002-1,59.955,59.955,1.0.0.505,1,1936161497,Professional,2.0.10.353,2.0.10.353,10/09/2017,09/10/2017 11:47,12:47:04,2.0.10.248,1,1,1,1,CM1,List1,3,NULL,NULL,NULL,3,1,3,b1,BlockList4,60,NULL,NULL,NULL,72,2,60,NULL,NULL,NULL,NULL,NULL,NULL,w,w,TrialProc,CM1Trails,red,red,e,e,1,w,552,1,w,533
DualSimon,1002,1,"<?xml version=""1.0""?>\n<Clock xmlns:dt=""urn:schemas-microsoft-com:datatypes""><Description dt:dt=""string"">E-Prime Primary Realtime Clock</Description><StartTime><Timestamp dt:dt=""int"">0</Timestamp><DateUtc dt:dt=""string"">2017-10-09T11:47:04Z</DateUtc></StartTime><FrequencyChanges><FrequencyChange><Frequency dt:dt=""r8"">2923154</Frequency><Timestamp dt:dt=""r8"">10525532348</Timestamp><Current dt:dt=""r8"">0</Current><DateUtc dt:dt=""string"">2017-10-09T11:47:04Z</DateUtc></FrequencyChange></FrequencyChanges></Clock>\n",DualSimon-001002-1,59.955,59.955,1.0.0.505,1,1936161497,Professional,2.0.10.353,2.0.10.353,10/09/2017,09/10/2017 11:47,12:47:04,2.0.10.248,1,1,1,1,CM1,List1,3,NULL,NULL,NULL,3,1,3,b1,BlockList4,61,NULL,NULL,NULL,50,2,61,NULL,NULL,NULL,NULL,NULL,NULL,w,e,TrialProc,CM1Trails,red,blue,w,e,1,w,401,1,e,443
DualSimon,1002,1,"<?xml version=""1.0""?>\n<Clock xmlns:dt=""urn:schemas-microsoft-com:datatypes""><Description dt:dt=""string"">E-Prime Primary Realtime Clock</Description><StartTime><Timestamp dt:dt=""int"">0</Timestamp><DateUtc dt:dt=""string"">2017-10-09T11:47:04Z</DateUtc></StartTime><FrequencyChanges><FrequencyChange><Frequency dt:dt=""r8"">2923154</Frequency><Timestamp dt:dt=""r8"">10525532348</Timestamp><Current dt:dt=""r8"">0</Current><DateUtc dt:dt=""string"">2017-10-09T11:47:04Z</DateUtc></FrequencyChange></FrequencyChanges></Clock>\n",DualSimon-001002-1,59.955,59.955,1.0.0.505,1,1936161497,Professional,2.0.10.353,2.0.10.353,10/09/2017,09/10/2017 11:47,12:47:04,2.0.10.248,1,1,1,1,CM1,List1,3,NULL,NULL,NULL,3,1,3,b1,BlockList4,62,NULL,NULL,NULL,91,2,62,NULL,NULL,NULL,NULL,NULL,NULL,w,e,TrialProc,CM1Trails,red,blue,e,w,1,w,391,0,w,322
DualSimon,1002,1,"<?xml version=""1.0""?>\n<Clock xmlns:dt=""urn:schemas-microsoft-com:datatypes""><Description dt:dt=""string"">E-Prime Primary Realtime Clock</Description><StartTime><Timestamp dt:dt=""int"">0</Timestamp><DateUtc dt:dt=""string"">2017-10-09T11:47:04Z</DateUtc></StartTime><FrequencyChanges><FrequencyChange><Frequency dt:dt=""r8"">2923154</Frequency><Timestamp dt:dt=""r8"">10525532348</Timestamp><Current dt:dt=""r8"">0</Current><DateUtc dt:dt=""string"">2017-10-09T11:47:04Z</DateUtc></FrequencyChange></FrequencyChanges></Clock>\n",DualSimon-001002-1,59.955,59.955,1.0.0.505,1,1936161497,Professional,2.0.10.353,2.0.10.353,10/09/2017,09/10/2017 11:47,12:47:04,2.0.10.248,1,1,1,1,CM1,List1,3,NULL,NULL,NULL,3,1,3,b1,BlockList4,63,NULL,NULL,NULL,32,2,63,NULL,NULL,NULL,NULL,NULL,NULL,e,w,TrialProc,CM1Trails,blue,red,e,w,1,e,592,1,w,502
DualSimon,1002,1,"<?xml version=""1.0""?>\n<Clock xmlns:dt=""urn:schemas-microsoft-com:datatypes""><Description dt:dt=""string"">E-Prime Primary Realtime Clock</Description><StartTime><Timestamp dt:dt=""int"">0</Timestamp><DateUtc dt:dt=""string"">2017-10-09T11:47:04Z</DateUtc></StartTime><FrequencyChanges><FrequencyChange><Frequency dt:dt=""r8"">2923154</Frequency><Timestamp dt:dt=""r8"">10525532348</Timestamp><Current dt:dt=""r8"">0</Current><DateUtc dt:dt=""string"">2017-10-09T11:47:04Z</DateUtc></FrequencyChange></FrequencyChanges></Clock>\n",DualSimon-001002-1,59.955,59.955,1.0.0.505,1,1936161497,Professional,2.0.10.353,2.0.10.353,10/09/2017,09/10/2017 11:47,12:47:04,2.0.10.248,1,1,1,1,CM1,List1,3,NULL,NULL,NULL,3,1,3,b1,BlockList4,64,NULL,NULL,NULL,20,2,64,NULL,NULL,NULL,NULL,NULL,NULL,w,w,TrialProc,CM1Trails,red,red,w,w,1,w,371,1,w,426
DualSimon,1002,1,"<?xml version=""1.0""?>\n<Clock xmlns:dt=""urn:schemas-microsoft-com:datatypes""><Description dt:dt=""string"">E-Prime Primary Realtime Clock</Description><StartTime><Timestamp dt:dt=""int"">0</Timestamp><DateUtc dt:dt=""string"">2017-10-09T11:47:04Z</DateUtc></StartTime><FrequencyChanges><FrequencyChange><Frequency dt:dt=""r8"">2923154</Frequency><Timestamp dt:dt=""r8"">10525532348</Timestamp><Current dt:dt=""r8"">0</Current><DateUtc dt:dt=""string"">2017-10-09T11:47:04Z</DateUtc></FrequencyChange></FrequencyChanges></Clock>\n",DualSimon-001002-1,59.955,59.955,1.0.0.505,1,1936161497,Professional,2.0.10.353,2.0.10.353,10/09/2017,09/10/2017 11:47,12:47:04,2.0.10.248,1,1,1,1,CM1,List1,3,NULL,NULL,NULL,3,1,3,b1,BlockList4,65,NULL,NULL,NULL,15,2,65,NULL,NULL,NULL,NULL,NULL,NULL,e,e,TrialProc,CM1Trails,blue,blue,e,e,1,e,380,1,e,469
DualSimon,1002,1,"<?xml version=""1.0""?>\n<Clock xmlns:dt=""urn:schemas-microsoft-com:datatypes""><Description dt:dt=""string"">E-Prime Primary Realtime Clock</Description><StartTime><Timestamp dt:dt=""int"">0</Timestamp><DateUtc dt:dt=""string"">2017-10-09T11:47:04Z</DateUtc></StartTime><FrequencyChanges><FrequencyChange><Frequency dt:dt=""r8"">2923154</Frequency><Timestamp dt:dt=""r8"">10525532348</Timestamp><Current dt:dt=""r8"">0</Current><DateUtc dt:dt=""string"">2017-10-09T11:47:04Z</DateUtc></FrequencyChange></FrequencyChanges></Clock>\n",DualSimon-001002-1,59.955,59.955,1.0.0.505,1,1936161497,Professional,2.0.10.353,2.0.10.353,10/09/2017,09/10/2017 11:47,12:47:04,2.0.10.248,1,1,1,1,CM1,List1,3,NULL,NULL,NULL,3,1,3,b1,BlockList4,66,NULL,NULL,NULL,55,2,66,NULL,NULL,NULL,NULL,NULL,NULL,e,e,TrialProc,CM1Trails,blue,blue,w,w,1,e,471,1,e,673
DualSimon,1002,1,"<?xml version=""1.0""?>\n<Clock xmlns:dt=""urn:schemas-microsoft-com:datatypes""><Description dt:dt=""string"">E-Prime Primary Realtime Clock</Description><StartTime><Timestamp dt:dt=""int"">0</Timestamp><DateUtc dt:dt=""string"">2017-10-09T11:47:04Z</DateUtc></StartTime><FrequencyChanges><FrequencyChange><Frequency dt:dt=""r8"">2923154</Frequency><Timestamp dt:dt=""r8"">10525532348</Timestamp><Current dt:dt=""r8"">0</Current><DateUtc dt:dt=""string"">2017-10-09T11:47:04Z</DateUtc></FrequencyChange></FrequencyChanges></Clock>\n",DualSimon-001002-1,59.955,59.955,1.0.0.505,1,1936161497,Professional,2.0.10.353,2.0.10.353,10/09/2017,09/10/2017 11:47,12:47:04,2.0.10.248,1,1,1,1,CM1,List1,3,NULL,NULL,NULL,3,1,3,b1,BlockList4,67,NULL,NULL,NULL,37,2,67,NULL,NULL,NULL,NULL,NULL,NULL,e,w,TrialProc,CM1Trails,blue,red,e,w,1,e,451,1,w,755
DualSimon,1002,1,"<?xml version=""1.0""?>\n<Clock xmlns:dt=""urn:schemas-microsoft-com:datatypes""><Description dt:dt=""string"">E-Prime Primary Realtime Clock</Description><StartTime><Timestamp dt:dt=""int"">0</Timestamp><DateUtc dt:dt=""string"">2017-10-09T11:47:04Z</DateUtc></StartTime><FrequencyChanges><FrequencyChange><Frequency dt:dt=""r8"">2923154</Frequency><Timestamp dt:dt=""r8"">10525532348</Timestamp><Current dt:dt=""r8"">0</Current><DateUtc dt:dt=""string"">2017-10-09T11:47:04Z</DateUtc></FrequencyChange></FrequencyChanges></Clock>\n",DualSimon-001002-1,59.955,59.955,1.0.0.505,1,1936161497,Professional,2.0.10.353,2.0.10.353,10/09/2017,09/10/2017 11:47,12:47:04,2.0.10.248,1,1,1,1,CM1,List1,3,NULL,NULL,NULL,3,1,3,b1,BlockList4,68,NULL,NULL,NULL,6,2,68,NULL,NULL,NULL,NULL,NULL,NULL,w,w,TrialProc,CM1Trails,red,red,e,e,1,w,453,1,w,477
DualSimon,1002,1,"<?xml version=""1.0""?>\n<Clock xmlns:dt=""urn:schemas-microsoft-com:datatypes""><Description dt:dt=""string"">E-Prime Primary Realtime Clock</Description><StartTime><Timestamp dt:dt=""int"">0</Timestamp><DateUtc dt:dt=""string"">2017-10-09T11:47:04Z</DateUtc></StartTime><FrequencyChanges><FrequencyChange><Frequency dt:dt=""r8"">2923154</Frequency><Timestamp dt:dt=""r8"">10525532348</Timestamp><Current dt:dt=""r8"">0</Current><DateUtc dt:dt=""string"">2017-10-09T11:47:04Z</DateUtc></FrequencyChange></FrequencyChanges></Clock>\n",DualSimon-001002-1,59.955,59.955,1.0.0.505,1,1936161497,Professional,2.0.10.353,2.0.10.353,10/09/2017,09/10/2017 11:47,12:47:04,2.0.10.248,1,1,1,1,CM1,List1,3,NULL,NULL,NULL,3,1,3,b1,BlockList4,69,NULL,NULL,NULL,73,2,69,NULL,NULL,NULL,NULL,NULL,NULL,w,w,TrialProc,CM1Trails,red,red,e,e,1,w,353,1,w,478
DualSimon,1002,1,"<?xml version=""1.0""?>\n<Clock xmlns:dt=""urn:schemas-microsoft-com:datatypes""><Description dt:dt=""string"">E-Prime Primary Realtime Clock</Description><StartTime><Timestamp dt:dt=""int"">0</Timestamp><DateUtc dt:dt=""string"">2017-10-09T11:47:04Z</DateUtc></StartTime><FrequencyChanges><FrequencyChange><Frequency dt:dt=""r8"">2923154</Frequency><Timestamp dt:dt=""r8"">10525532348</Timestamp><Current dt:dt=""r8"">0</Current><DateUtc dt:dt=""string"">2017-10-09T11:47:04Z</DateUtc></FrequencyChange></FrequencyChanges></Clock>\n",DualSimon-001002-1,59.955,59.955,1.0.0.505,1,1936161497,Professional,2.0.10.353,2.0.10.353,10/09/2017,09/10/2017 11:47,12:47:04,2.0.10.248,1,1,1,1,CM1,List1,3,NULL,NULL,NULL,3,1,3,b1,BlockList4,70,NULL,NULL,NULL,40,2,70,NULL,NULL,NULL,NULL,NULL,NULL,e,w,TrialProc,CM1Trails,blue,red,e,w,1,e,392,1,w,388
DualSimon,1002,1,"<?xml version=""1.0""?>\n<Clock xmlns:dt=""urn:schemas-microsoft-com:datatypes""><Description dt:dt=""string"">E-Prime Primary Realtime Clock</Description><StartTime><Timestamp dt:dt=""int"">0</Timestamp><DateUtc dt:dt=""string"">2017-10-09T11:47:04Z</DateUtc></StartTime><FrequencyChanges><FrequencyChange><Frequency dt:dt=""r8"">2923154</Frequency><Timestamp dt:dt=""r8"">10525532348</Timestamp><Current dt:dt=""r8"">0</Current><DateUtc dt:dt=""string"">2017-10-09T11:47:04Z</DateUtc></FrequencyChange></FrequencyChanges></Clock>\n",DualSimon-001002-1,59.955,59.955,1.0.0.505,1,1936161497,Professional,2.0.10.353,2.0.10.353,10/09/2017,09/10/2017 11:47,12:47:04,2.0.10.248,1,1,1,1,CM1,List1,3,NULL,NULL,NULL,3,1,3,b1,BlockList4,71,NULL,NULL,NULL,62,2,71,NULL,NULL,NULL,NULL,NULL,NULL,e,e,TrialProc,CM1Trails,blue,blue,w,w,1,e,384,1,e,419
DualSimon,1002,1,"<?xml version=""1.0""?>\n<Clock xmlns:dt=""urn:schemas-microsoft-com:datatypes""><Description dt:dt=""string"">E-Prime Primary Realtime Clock</Description><StartTime><Timestamp dt:dt=""int"">0</Timestamp><DateUtc dt:dt=""string"">2017-10-09T11:47:04Z</DateUtc></StartTime><FrequencyChanges><FrequencyChange><Frequency dt:dt=""r8"">2923154</Frequency><Timestamp dt:dt=""r8"">10525532348</Timestamp><Current dt:dt=""r8"">0</Current><DateUtc dt:dt=""string"">2017-10-09T11:47:04Z</DateUtc></FrequencyChange></FrequencyChanges></Clock>\n",DualSimon-001002-1,59.955,59.955,1.0.0.505,1,1936161497,Professional,2.0.10.353,2.0.10.353,10/09/2017,09/10/2017 11:47,12:47:04,2.0.10.248,1,1,1,1,CM1,List1,3,NULL,NULL,NULL,3,1,3,b1,BlockList4,72,NULL,NULL,NULL,56,2,72,NULL,NULL,NULL,NULL,NULL,NULL,e,e,TrialProc,CM1Trails,blue,blue,w,w,1,e,388,1,e,411
DualSimon,1002,1,"<?xml version=""1.0""?>\n<Clock xmlns:dt=""urn:schemas-microsoft-com:datatypes""><Description dt:dt=""string"">E-Prime Primary Realtime Clock</Description><StartTime><Timestamp dt:dt=""int"">0</Timestamp><DateUtc dt:dt=""string"">2017-10-09T11:47:04Z</DateUtc></StartTime><FrequencyChanges><FrequencyChange><Frequency dt:dt=""r8"">2923154</Frequency><Timestamp dt:dt=""r8"">10525532348</Timestamp><Current dt:dt=""r8"">0</Current><DateUtc dt:dt=""string"">2017-10-09T11:47:04Z</DateUtc></FrequencyChange></FrequencyChanges></Clock>\n",DualSimon-001002-1,59.955,59.955,1.0.0.505,1,1936161497,Professional,2.0.10.353,2.0.10.353,10/09/2017,09/10/2017 11:47,12:47:04,2.0.10.248,1,1,1,1,CM1,List1,3,NULL,NULL,NULL,3,1,3,b1,BlockList4,73,NULL,NULL,NULL,61,2,73,NULL,NULL,NULL,NULL,NULL,NULL,e,e,TrialProc,CM1Trails,blue,blue,w,w,1,e,364,1,e,418
DualSimon,1002,1,"<?xml version=""1.0""?>\n<Clock xmlns:dt=""urn:schemas-microsoft-com:datatypes""><Description dt:dt=""string"">E-Prime Primary Realtime Clock</Description><StartTime><Timestamp dt:dt=""int"">0</Timestamp><DateUtc dt:dt=""string"">2017-10-09T11:47:04Z</DateUtc></StartTime><FrequencyChanges><FrequencyChange><Frequency dt:dt=""r8"">2923154</Frequency><Timestamp dt:dt=""r8"">10525532348</Timestamp><Current dt:dt=""r8"">0</Current><DateUtc dt:dt=""string"">2017-10-09T11:47:04Z</DateUtc></FrequencyChange></FrequencyChanges></Clock>\n",DualSimon-001002-1,59.955,59.955,1.0.0.505,1,1936161497,Professional,2.0.10.353,2.0.10.353,10/09/2017,09/10/2017 11:47,12:47:04,2.0.10.248,1,1,1,1,CM1,List1,3,NULL,NULL,NULL,3,1,3,b1,BlockList4,74,NULL,NULL,NULL,86,2,74,NULL,NULL,NULL,NULL,NULL,NULL,w,e,TrialProc,CM1Trails,red,blue,e,w,1,w,276,1,e,357
DualSimon,1002,1,"<?xml version=""1.0""?>\n<Clock xmlns:dt=""urn:schemas-microsoft-com:datatypes""><Description dt:dt=""string"">E-Prime Primary Realtime Clock</Description><StartTime><Timestamp dt:dt=""int"">0</Timestamp><DateUtc dt:dt=""string"">2017-10-09T11:47:04Z</DateUtc></StartTime><FrequencyChanges><FrequencyChange><Frequency dt:dt=""r8"">2923154</Frequency><Timestamp dt:dt=""r8"">10525532348</Timestamp><Current dt:dt=""r8"">0</Current><DateUtc dt:dt=""string"">2017-10-09T11:47:04Z</DateUtc></FrequencyChange></FrequencyChanges></Clock>\n",DualSimon-001002-1,59.955,59.955,1.0.0.505,1,1936161497,Professional,2.0.10.353,2.0.10.353,10/09/2017,09/10/2017 11:47,12:47:04,2.0.10.248,1,1,1,1,CM1,List1,3,NULL,NULL,NULL,3,1,3,b1,BlockList4,75,NULL,NULL,NULL,34,2,75,NULL,NULL,NULL,NULL,NULL,NULL,e,w,TrialProc,CM1Trails,blue,red,e,w,1,e,404,1,w,375
DualSimon,1002,1,"<?xml version=""1.0""?>\n<Clock xmlns:dt=""urn:schemas-microsoft-com:datatypes""><Description dt:dt=""string"">E-Prime Primary Realtime Clock</Description><StartTime><Timestamp dt:dt=""int"">0</Timestamp><DateUtc dt:dt=""string"">2017-10-09T11:47:04Z</DateUtc></StartTime><FrequencyChanges><FrequencyChange><Frequency dt:dt=""r8"">2923154</Frequency><Timestamp dt:dt=""r8"">10525532348</Timestamp><Current dt:dt=""r8"">0</Current><DateUtc dt:dt=""string"">2017-10-09T11:47:04Z</DateUtc></FrequencyChange></FrequencyChanges></Clock>\n",DualSimon-001002-1,59.955,59.955,1.0.0.505,1,1936161497,Professional,2.0.10.353,2.0.10.353,10/09/2017,09/10/2017 11:47,12:47:04,2.0.10.248,1,1,1,1,CM1,List1,3,NULL,NULL,NULL,3,1,3,b1,BlockList4,76,NULL,NULL,NULL,65,2,76,NULL,NULL,NULL,NULL,NULL,NULL,w,w,TrialProc,CM1Trails,red,red,e,e,1,w,466,1,w,473
DualSimon,1002,1,"<?xml version=""1.0""?>\n<Clock xmlns:dt=""urn:schemas-microsoft-com:datatypes""><Description dt:dt=""string"">E-Prime Primary Realtime Clock</Description><StartTime><Timestamp dt:dt=""int"">0</Timestamp><DateUtc dt:dt=""string"">2017-10-09T11:47:04Z</DateUtc></StartTime><FrequencyChanges><FrequencyChange><Frequency dt:dt=""r8"">2923154</Frequency><Timestamp dt:dt=""r8"">10525532348</Timestamp><Current dt:dt=""r8"">0</Current><DateUtc dt:dt=""string"">2017-10-09T11:47:04Z</DateUtc></FrequencyChange></FrequencyChanges></Clock>\n",DualSimon-001002-1,59.955,59.955,1.0.0.505,1,1936161497,Professional,2.0.10.353,2.0.10.353,10/09/2017,09/10/2017 11:47,12:47:04,2.0.10.248,1,1,1,1,CM1,List1,3,NULL,NULL,NULL,3,1,3,b1,BlockList4,77,NULL,NULL,NULL,3,2,77,NULL,NULL,NULL,NULL,NULL,NULL,e,w,TrialProc,CM1Trails,blue,red,e,w,1,e,304,1,w,450
DualSimon,1002,1,"<?xml version=""1.0""?>\n<Clock xmlns:dt=""urn:schemas-microsoft-com:datatypes""><Description dt:dt=""string"">E-Prime Primary Realtime Clock</Description><StartTime><Timestamp dt:dt=""int"">0</Timestamp><DateUtc dt:dt=""string"">2017-10-09T11:47:04Z</DateUtc></StartTime><FrequencyChanges><FrequencyChange><Frequency dt:dt=""r8"">2923154</Frequency><Timestamp dt:dt=""r8"">10525532348</Timestamp><Current dt:dt=""r8"">0</Current><DateUtc dt:dt=""string"">2017-10-09T11:47:04Z</DateUtc></FrequencyChange></FrequencyChanges></Clock>\n",DualSimon-001002-1,59.955,59.955,1.0.0.505,1,1936161497,Professional,2.0.10.353,2.0.10.353,10/09/2017,09/10/2017 11:47,12:47:04,2.0.10.248,1,1,1,1,CM1,List1,3,NULL,NULL,NULL,3,1,3,b1,BlockList4,78,NULL,NULL,NULL,92,2,78,NULL,NULL,NULL,NULL,NULL,NULL,w,e,TrialProc,CM1Trails,red,blue,e,w,1,w,789,1,e,369
DualSimon,1002,1,"<?xml version=""1.0""?>\n<Clock xmlns:dt=""urn:schemas-microsoft-com:datatypes""><Description dt:dt=""string"">E-Prime Primary Realtime Clock</Description><StartTime><Timestamp dt:dt=""int"">0</Timestamp><DateUtc dt:dt=""string"">2017-10-09T11:47:04Z</DateUtc></StartTime><FrequencyChanges><FrequencyChange><Frequency dt:dt=""r8"">2923154</Frequency><Timestamp dt:dt=""r8"">10525532348</Timestamp><Current dt:dt=""r8"">0</Current><DateUtc dt:dt=""string"">2017-10-09T11:47:04Z</DateUtc></FrequencyChange></FrequencyChanges></Clock>\n",DualSimon-001002-1,59.955,59.955,1.0.0.505,1,1936161497,Professional,2.0.10.353,2.0.10.353,10/09/2017,09/10/2017 11:47,12:47:04,2.0.10.248,1,1,1,1,CM1,List1,3,NULL,NULL,NULL,3,1,3,b1,BlockList4,79,NULL,NULL,NULL,87,2,79,NULL,NULL,NULL,NULL,NULL,NULL,w,e,TrialProc,CM1Trails,red,blue,e,w,1,w,636,1,e,380
DualSimon,1002,1,"<?xml version=""1.0""?>\n<Clock xmlns:dt=""urn:schemas-microsoft-com:datatypes""><Description dt:dt=""string"">E-Prime Primary Realtime Clock</Description><StartTime><Timestamp dt:dt=""int"">0</Timestamp><DateUtc dt:dt=""string"">2017-10-09T11:47:04Z</DateUtc></StartTime><FrequencyChanges><FrequencyChange><Frequency dt:dt=""r8"">2923154</Frequency><Timestamp dt:dt=""r8"">10525532348</Timestamp><Current dt:dt=""r8"">0</Current><DateUtc dt:dt=""string"">2017-10-09T11:47:04Z</DateUtc></FrequencyChange></FrequencyChanges></Clock>\n",DualSimon-001002-1,59.955,59.955,1.0.0.505,1,1936161497,Professional,2.0.10.353,2.0.10.353,10/09/2017,09/10/2017 11:47,12:47:04,2.0.10.248,1,1,1,1,CM1,List1,3,NULL,NULL,NULL,3,1,3,b1,BlockList4,80,NULL,NULL,NULL,48,2,80,NULL,NULL,NULL,NULL,NULL,NULL,w,e,TrialProc,CM1Trails,red,blue,w,e,1,w,444,1,e,351
DualSimon,1002,1,"<?xml version=""1.0""?>\n<Clock xmlns:dt=""urn:schemas-microsoft-com:datatypes""><Description dt:dt=""string"">E-Prime Primary Realtime Clock</Description><StartTime><Timestamp dt:dt=""int"">0</Timestamp><DateUtc dt:dt=""string"">2017-10-09T11:47:04Z</DateUtc></StartTime><FrequencyChanges><FrequencyChange><Frequency dt:dt=""r8"">2923154</Frequency><Timestamp dt:dt=""r8"">10525532348</Timestamp><Current dt:dt=""r8"">0</Current><DateUtc dt:dt=""string"">2017-10-09T11:47:04Z</DateUtc></FrequencyChange></FrequencyChanges></Clock>\n",DualSimon-001002-1,59.955,59.955,1.0.0.505,1,1936161497,Professional,2.0.10.353,2.0.10.353,10/09/2017,09/10/2017 11:47,12:47:04,2.0.10.248,1,1,1,1,CM1,List1,3,NULL,NULL,NULL,3,1,3,b1,BlockList4,81,NULL,NULL,NULL,33,2,81,NULL,NULL,NULL,NULL,NULL,NULL,e,w,TrialProc,CM1Trails,blue,red,e,w,1,e,281,1,w,303
DualSimon,1002,1,"<?xml version=""1.0""?>\n<Clock xmlns:dt=""urn:schemas-microsoft-com:datatypes""><Description dt:dt=""string"">E-Prime Primary Realtime Clock</Description><StartTime><Timestamp dt:dt=""int"">0</Timestamp><DateUtc dt:dt=""string"">2017-10-09T11:47:04Z</DateUtc></StartTime><FrequencyChanges><FrequencyChange><Frequency dt:dt=""r8"">2923154</Frequency><Timestamp dt:dt=""r8"">10525532348</Timestamp><Current dt:dt=""r8"">0</Current><DateUtc dt:dt=""string"">2017-10-09T11:47:04Z</DateUtc></FrequencyChange></FrequencyChanges></Clock>\n",DualSimon-001002-1,59.955,59.955,1.0.0.505,1,1936161497,Professional,2.0.10.353,2.0.10.353,10/09/2017,09/10/2017 11:47,12:47:04,2.0.10.248,1,1,1,1,CM1,List1,3,NULL,NULL,NULL,3,1,3,b1,BlockList4,82,NULL,NULL,NULL,69,2,82,NULL,NULL,NULL,NULL,NULL,NULL,w,w,TrialProc,CM1Trails,red,red,e,e,1,w,555,0,e,325
DualSimon,1002,1,"<?xml version=""1.0""?>\n<Clock xmlns:dt=""urn:schemas-microsoft-com:datatypes""><Description dt:dt=""string"">E-Prime Primary Realtime Clock</Description><StartTime><Timestamp dt:dt=""int"">0</Timestamp><DateUtc dt:dt=""string"">2017-10-09T11:47:04Z</DateUtc></StartTime><FrequencyChanges><FrequencyChange><Frequency dt:dt=""r8"">2923154</Frequency><Timestamp dt:dt=""r8"">10525532348</Timestamp><Current dt:dt=""r8"">0</Current><DateUtc dt:dt=""string"">2017-10-09T11:47:04Z</DateUtc></FrequencyChange></FrequencyChanges></Clock>\n",DualSimon-001002-1,59.955,59.955,1.0.0.505,1,1936161497,Professional,2.0.10.353,2.0.10.353,10/09/2017,09/10/2017 11:47,12:47:04,2.0.10.248,1,1,1,1,CM1,List1,3,NULL,NULL,NULL,3,1,3,b1,BlockList4,83,NULL,NULL,NULL,68,2,83,NULL,NULL,NULL,NULL,NULL,NULL,w,w,TrialProc,CM1Trails,red,red,e,e,1,w,342,1,w,452
DualSimon,1002,1,"<?xml version=""1.0""?>\n<Clock xmlns:dt=""urn:schemas-microsoft-com:datatypes""><Description dt:dt=""string"">E-Prime Primary Realtime Clock</Description><StartTime><Timestamp dt:dt=""int"">0</Timestamp><DateUtc dt:dt=""string"">2017-10-09T11:47:04Z</DateUtc></StartTime><FrequencyChanges><FrequencyChange><Frequency dt:dt=""r8"">2923154</Frequency><Timestamp dt:dt=""r8"">10525532348</Timestamp><Current dt:dt=""r8"">0</Current><DateUtc dt:dt=""string"">2017-10-09T11:47:04Z</DateUtc></FrequencyChange></FrequencyChanges></Clock>\n",DualSimon-001002-1,59.955,59.955,1.0.0.505,1,1936161497,Professional,2.0.10.353,2.0.10.353,10/09/2017,09/10/2017 11:47,12:47:04,2.0.10.248,1,1,1,1,CM1,List1,3,NULL,NULL,NULL,3,1,3,b1,BlockList4,84,NULL,NULL,NULL,4,2,84,NULL,NULL,NULL,NULL,NULL,NULL,w,e,TrialProc,CM1Trails,red,blue,w,e,1,w,429,1,e,331
DualSimon,1002,1,"<?xml version=""1.0""?>\n<Clock xmlns:dt=""urn:schemas-microsoft-com:datatypes""><Description dt:dt=""string"">E-Prime Primary Realtime Clock</Description><StartTime><Timestamp dt:dt=""int"">0</Timestamp><DateUtc dt:dt=""string"">2017-10-09T11:47:04Z</DateUtc></StartTime><FrequencyChanges><FrequencyChange><Frequency dt:dt=""r8"">2923154</Frequency><Timestamp dt:dt=""r8"">10525532348</Timestamp><Current dt:dt=""r8"">0</Current><DateUtc dt:dt=""string"">2017-10-09T11:47:04Z</DateUtc></FrequencyChange></FrequencyChanges></Clock>\n",DualSimon-001002-1,59.955,59.955,1.0.0.505,1,1936161497,Professional,2.0.10.353,2.0.10.353,10/09/2017,09/10/2017 11:47,12:47:04,2.0.10.248,1,1,1,1,CM1,List1,3,NULL,NULL,NULL,3,1,3,b1,BlockList4,85,NULL,NULL,NULL,53,2,85,NULL,NULL,NULL,NULL,NULL,NULL,e,e,TrialProc,CM1Trails,blue,blue,w,w,1,e,393,1,e,441
DualSimon,1002,1,"<?xml version=""1.0""?>\n<Clock xmlns:dt=""urn:schemas-microsoft-com:datatypes""><Description dt:dt=""string"">E-Prime Primary Realtime Clock</Description><StartTime><Timestamp dt:dt=""int"">0</Timestamp><DateUtc dt:dt=""string"">2017-10-09T11:47:04Z</DateUtc></StartTime><FrequencyChanges><FrequencyChange><Frequency dt:dt=""r8"">2923154</Frequency><Timestamp dt:dt=""r8"">10525532348</Timestamp><Current dt:dt=""r8"">0</Current><DateUtc dt:dt=""string"">2017-10-09T11:47:04Z</DateUtc></FrequencyChange></FrequencyChanges></Clock>\n",DualSimon-001002-1,59.955,59.955,1.0.0.505,1,1936161497,Professional,2.0.10.353,2.0.10.353,10/09/2017,09/10/2017 11:47,12:47:04,2.0.10.248,1,1,1,1,CM1,List1,3,NULL,NULL,NULL,3,1,3,b1,BlockList4,86,NULL,NULL,NULL,25,2,86,NULL,NULL,NULL,NULL,NULL,NULL,w,w,TrialProc,CM1Trails,red,red,w,w,1,w,416,1,w,361
DualSimon,1002,1,"<?xml version=""1.0""?>\n<Clock xmlns:dt=""urn:schemas-microsoft-com:datatypes""><Description dt:dt=""string"">E-Prime Primary Realtime Clock</Description><StartTime><Timestamp dt:dt=""int"">0</Timestamp><DateUtc dt:dt=""string"">2017-10-09T11:47:04Z</DateUtc></StartTime><FrequencyChanges><FrequencyChange><Frequency dt:dt=""r8"">2923154</Frequency><Timestamp dt:dt=""r8"">10525532348</Timestamp><Current dt:dt=""r8"">0</Current><DateUtc dt:dt=""string"">2017-10-09T11:47:04Z</DateUtc></FrequencyChange></FrequencyChanges></Clock>\n",DualSimon-001002-1,59.955,59.955,1.0.0.505,1,1936161497,Professional,2.0.10.353,2.0.10.353,10/09/2017,09/10/2017 11:47,12:47:04,2.0.10.248,1,1,1,1,CM1,List1,3,NULL,NULL,NULL,3,1,3,b1,BlockList4,87,NULL,NULL,NULL,83,2,87,NULL,NULL,NULL,NULL,NULL,NULL,e,w,TrialProc,CM1Trails,blue,red,w,e,1,e,421,1,w,486
DualSimon,1002,1,"<?xml version=""1.0""?>\n<Clock xmlns:dt=""urn:schemas-microsoft-com:datatypes""><Description dt:dt=""string"">E-Prime Primary Realtime Clock</Description><StartTime><Timestamp dt:dt=""int"">0</Timestamp><DateUtc dt:dt=""string"">2017-10-09T11:47:04Z</DateUtc></StartTime><FrequencyChanges><FrequencyChange><Frequency dt:dt=""r8"">2923154</Frequency><Timestamp dt:dt=""r8"">10525532348</Timestamp><Current dt:dt=""r8"">0</Current><DateUtc dt:dt=""string"">2017-10-09T11:47:04Z</DateUtc></FrequencyChange></FrequencyChanges></Clock>\n",DualSimon-001002-1,59.955,59.955,1.0.0.505,1,1936161497,Professional,2.0.10.353,2.0.10.353,10/09/2017,09/10/2017 11:47,12:47:04,2.0.10.248,1,1,1,1,CM1,List1,3,NULL,NULL,NULL,3,1,3,b1,BlockList4,88,NULL,NULL,NULL,52,2,88,NULL,NULL,NULL,NULL,NULL,NULL,w,e,TrialProc,CM1Trails,red,blue,w,e,0,e,1011,1,e,560
DualSimon,1002,1,"<?xml version=""1.0""?>\n<Clock xmlns:dt=""urn:schemas-microsoft-com:datatypes""><Description dt:dt=""string"">E-Prime Primary Realtime Clock</Description><StartTime><Timestamp dt:dt=""int"">0</Timestamp><DateUtc dt:dt=""string"">2017-10-09T11:47:04Z</DateUtc></StartTime><FrequencyChanges><FrequencyChange><Frequency dt:dt=""r8"">2923154</Frequency><Timestamp dt:dt=""r8"">10525532348</Timestamp><Current dt:dt=""r8"">0</Current><DateUtc dt:dt=""string"">2017-10-09T11:47:04Z</DateUtc></FrequencyChange></FrequencyChanges></Clock>\n",DualSimon-001002-1,59.955,59.955,1.0.0.505,1,1936161497,Professional,2.0.10.353,2.0.10.353,10/09/2017,09/10/2017 11:47,12:47:04,2.0.10.248,1,1,1,1,CM1,List1,3,NULL,NULL,NULL,3,1,3,b1,BlockList4,89,NULL,NULL,NULL,75,2,89,NULL,NULL,NULL,NULL,NULL,NULL,e,w,TrialProc,CM1Trails,blue,red,w,e,1,e,614,1,w,486
DualSimon,1002,1,"<?xml version=""1.0""?>\n<Clock xmlns:dt=""urn:schemas-microsoft-com:datatypes""><Description dt:dt=""string"">E-Prime Primary Realtime Clock</Description><StartTime><Timestamp dt:dt=""int"">0</Timestamp><DateUtc dt:dt=""string"">2017-10-09T11:47:04Z</DateUtc></StartTime><FrequencyChanges><FrequencyChange><Frequency dt:dt=""r8"">2923154</Frequency><Timestamp dt:dt=""r8"">10525532348</Timestamp><Current dt:dt=""r8"">0</Current><DateUtc dt:dt=""string"">2017-10-09T11:47:04Z</DateUtc></FrequencyChange></FrequencyChanges></Clock>\n",DualSimon-001002-1,59.955,59.955,1.0.0.505,1,1936161497,Professional,2.0.10.353,2.0.10.353,10/09/2017,09/10/2017 11:47,12:47:04,2.0.10.248,1,1,1,1,CM1,List1,3,NULL,NULL,NULL,3,1,3,b1,BlockList4,90,NULL,NULL,NULL,88,2,90,NULL,NULL,NULL,NULL,NULL,NULL,w,e,TrialProc,CM1Trails,red,blue,e,w,1,w,340,1,e,398
DualSimon,1002,1,"<?xml version=""1.0""?>\n<Clock xmlns:dt=""urn:schemas-microsoft-com:datatypes""><Description dt:dt=""string"">E-Prime Primary Realtime Clock</Description><StartTime><Timestamp dt:dt=""int"">0</Timestamp><DateUtc dt:dt=""string"">2017-10-09T11:47:04Z</DateUtc></StartTime><FrequencyChanges><FrequencyChange><Frequency dt:dt=""r8"">2923154</Frequency><Timestamp dt:dt=""r8"">10525532348</Timestamp><Current dt:dt=""r8"">0</Current><DateUtc dt:dt=""string"">2017-10-09T11:47:04Z</DateUtc></FrequencyChange></FrequencyChanges></Clock>\n",DualSimon-001002-1,59.955,59.955,1.0.0.505,1,1936161497,Professional,2.0.10.353,2.0.10.353,10/09/2017,09/10/2017 11:47,12:47:04,2.0.10.248,1,1,1,1,CM1,List1,3,NULL,NULL,NULL,3,1,3,b1,BlockList4,91,NULL,NULL,NULL,21,2,91,NULL,NULL,NULL,NULL,NULL,NULL,w,w,TrialProc,CM1Trails,red,red,w,w,1,w,685,1,w,298
DualSimon,1002,1,"<?xml version=""1.0""?>\n<Clock xmlns:dt=""urn:schemas-microsoft-com:datatypes""><Description dt:dt=""string"">E-Prime Primary Realtime Clock</Description><StartTime><Timestamp dt:dt=""int"">0</Timestamp><DateUtc dt:dt=""string"">2017-10-09T11:47:04Z</DateUtc></StartTime><FrequencyChanges><FrequencyChange><Frequency dt:dt=""r8"">2923154</Frequency><Timestamp dt:dt=""r8"">10525532348</Timestamp><Current dt:dt=""r8"">0</Current><DateUtc dt:dt=""string"">2017-10-09T11:47:04Z</DateUtc></FrequencyChange></FrequencyChanges></Clock>\n",DualSimon-001002-1,59.955,59.955,1.0.0.505,1,1936161497,Professional,2.0.10.353,2.0.10.353,10/09/2017,09/10/2017 11:47,12:47:04,2.0.10.248,1,1,1,1,CM1,List1,3,NULL,NULL,NULL,3,1,3,b1,BlockList4,92,NULL,NULL,NULL,45,2,92,NULL,NULL,NULL,NULL,NULL,NULL,w,e,TrialProc,CM1Trails,red,blue,w,e,1,w,324,1,e,332
DualSimon,1002,1,"<?xml version=""1.0""?>\n<Clock xmlns:dt=""urn:schemas-microsoft-com:datatypes""><Description dt:dt=""string"">E-Prime Primary Realtime Clock</Description><StartTime><Timestamp dt:dt=""int"">0</Timestamp><DateUtc dt:dt=""string"">2017-10-09T11:47:04Z</DateUtc></StartTime><FrequencyChanges><FrequencyChange><Frequency dt:dt=""r8"">2923154</Frequency><Timestamp dt:dt=""r8"">10525532348</Timestamp><Current dt:dt=""r8"">0</Current><DateUtc dt:dt=""string"">2017-10-09T11:47:04Z</DateUtc></FrequencyChange></FrequencyChanges></Clock>\n",DualSimon-001002-1,59.955,59.955,1.0.0.505,1,1936161497,Professional,2.0.10.353,2.0.10.353,10/09/2017,09/10/2017 11:47,12:47:04,2.0.10.248,1,1,1,1,CM1,List1,3,NULL,NULL,NULL,3,1,3,b1,BlockList4,93,NULL,NULL,NULL,77,2,93,NULL,NULL,NULL,NULL,NULL,NULL,e,w,TrialProc,CM1Trails,blue,red,w,e,1,e,496,1,w,656
DualSimon,1002,1,"<?xml version=""1.0""?>\n<Clock xmlns:dt=""urn:schemas-microsoft-com:datatypes""><Description dt:dt=""string"">E-Prime Primary Realtime Clock</Description><StartTime><Timestamp dt:dt=""int"">0</Timestamp><DateUtc dt:dt=""string"">2017-10-09T11:47:04Z</DateUtc></StartTime><FrequencyChanges><FrequencyChange><Frequency dt:dt=""r8"">2923154</Frequency><Timestamp dt:dt=""r8"">10525532348</Timestamp><Current dt:dt=""r8"">0</Current><DateUtc dt:dt=""string"">2017-10-09T11:47:04Z</DateUtc></FrequencyChange></FrequencyChanges></Clock>\n",DualSimon-001002-1,59.955,59.955,1.0.0.505,1,1936161497,Professional,2.0.10.353,2.0.10.353,10/09/2017,09/10/2017 11:47,12:47:04,2.0.10.248,1,1,1,1,CM1,List1,3,NULL,NULL,NULL,3,1,3,b1,BlockList4,94,NULL,NULL,NULL,80,2,94,NULL,NULL,NULL,NULL,NULL,NULL,e,w,TrialProc,CM1Trails,blue,red,w,e,1,e,752,1,w,389
DualSimon,1002,1,"<?xml version=""1.0""?>\n<Clock xmlns:dt=""urn:schemas-microsoft-com:datatypes""><Description dt:dt=""string"">E-Prime Primary Realtime Clock</Description><StartTime><Timestamp dt:dt=""int"">0</Timestamp><DateUtc dt:dt=""string"">2017-10-09T11:47:04Z</DateUtc></StartTime><FrequencyChanges><FrequencyChange><Frequency dt:dt=""r8"">2923154</Frequency><Timestamp dt:dt=""r8"">10525532348</Timestamp><Current dt:dt=""r8"">0</Current><DateUtc dt:dt=""string"">2017-10-09T11:47:04Z</DateUtc></FrequencyChange></FrequencyChanges></Clock>\n",DualSimon-001002-1,59.955,59.955,1.0.0.505,1,1936161497,Professional,2.0.10.353,2.0.10.353,10/09/2017,09/10/2017 11:47,12:47:04,2.0.10.248,1,1,1,1,CM1,List1,3,NULL,NULL,NULL,3,1,3,b1,BlockList4,95,NULL,NULL,NULL,95,2,95,NULL,NULL,NULL,NULL,NULL,NULL,w,e,TrialProc,CM1Trails,red,blue,e,w,1,w,444,1,e,396
DualSimon,1002,1,"<?xml version=""1.0""?>\n<Clock xmlns:dt=""urn:schemas-microsoft-com:datatypes""><Description dt:dt=""string"">E-Prime Primary Realtime Clock</Description><StartTime><Timestamp dt:dt=""int"">0</Timestamp><DateUtc dt:dt=""string"">2017-10-09T11:47:04Z</DateUtc></StartTime><FrequencyChanges><FrequencyChange><Frequency dt:dt=""r8"">2923154</Frequency><Timestamp dt:dt=""r8"">10525532348</Timestamp><Current dt:dt=""r8"">0</Current><DateUtc dt:dt=""string"">2017-10-09T11:47:04Z</DateUtc></FrequencyChange></FrequencyChanges></Clock>\n",DualSimon-001002-1,59.955,59.955,1.0.0.505,1,1936161497,Professional,2.0.10.353,2.0.10.353,10/09/2017,09/10/2017 11:47,12:47:04,2.0.10.248,1,1,1,1,CM1,List1,3,NULL,NULL,NULL,3,1,3,b1,BlockList4,96,NULL,NULL,NULL,85,2,96,NULL,NULL,NULL,NULL,NULL,NULL,e,w,TrialProc,CM1Trails,blue,red,w,e,1,e,470,1,w,433
DualSimon,1002,1,"<?xml version=""1.0""?>\n<Clock xmlns:dt=""urn:schemas-microsoft-com:datatypes""><Description dt:dt=""string"">E-Prime Primary Realtime Clock</Description><StartTime><Timestamp dt:dt=""int"">0</Timestamp><DateUtc dt:dt=""string"">2017-10-09T11:47:04Z</DateUtc></StartTime><FrequencyChanges><FrequencyChange><Frequency dt:dt=""r8"">2923154</Frequency><Timestamp dt:dt=""r8"">10525532348</Timestamp><Current dt:dt=""r8"">0</Current><DateUtc dt:dt=""string"">2017-10-09T11:47:04Z</DateUtc></FrequencyChange></FrequencyChanges></Clock>\n",DualSimon-001002-1,59.955,59.955,1.0.0.505,1,1936161497,Professional,2.0.10.353,2.0.10.353,10/09/2017,09/10/2017 11:47,12:47:04,2.0.10.248,2,2,1,2,CM2,List1,1,1,1,1,NULL,NULL,NULL,CM2PracTrial,BlockList2,1,NULL,NULL,NULL,NULL,NULL,NULL,4,2,1,NULL,NULL,NULL,e,w,TrialProc7,CM2PracTrials,red,blue,e,w,1,e,348,1,w,493
DualSimon,1002,1,"<?xml version=""1.0""?>\n<Clock xmlns:dt=""urn:schemas-microsoft-com:datatypes""><Description dt:dt=""string"">E-Prime Primary Realtime Clock</Description><StartTime><Timestamp dt:dt=""int"">0</Timestamp><DateUtc dt:dt=""string"">2017-10-09T11:47:04Z</DateUtc></StartTime><FrequencyChanges><FrequencyChange><Frequency dt:dt=""r8"">2923154</Frequency><Timestamp dt:dt=""r8"">10525532348</Timestamp><Current dt:dt=""r8"">0</Current><DateUtc dt:dt=""string"">2017-10-09T11:47:04Z</DateUtc></FrequencyChange></FrequencyChanges></Clock>\n",DualSimon-001002-1,59.955,59.955,1.0.0.505,1,1936161497,Professional,2.0.10.353,2.0.10.353,10/09/2017,09/10/2017 11:47,12:47:04,2.0.10.248,2,2,1,2,CM2,List1,1,1,1,1,NULL,NULL,NULL,CM2PracTrial,BlockList2,2,NULL,NULL,NULL,NULL,NULL,NULL,16,2,2,NULL,NULL,NULL,e,e,TrialProc7,CM2PracTrials,red,red,e,e,1,e,353,1,e,508
