ExperimentName,Subject,Session,Clock.Information,DataFile.Basename,Display1.RefreshRate,Display2.RefreshRate,ExperimentVersion,Group,RandomSeed,RuntimeCapabilities,RuntimeVersion,RuntimeVersionExpected,SessionDate,SessionStartDateTimeUtc,SessionTime,StudioVersion,Block,List1,List1.Cycle,List1.Sample,Procedure[Block],Running[Block],Trial,BlockList2,BlockList2.Cycle,BlockList2.Sample,BlockList4,BlockList4.Cycle,BlockList4.Sample,Procedure[Trial],Running[Trial],SubTrial,CM1PracTrails1,CM1PracTrails1.Cycle,CM1PracTrails1.Sample,CM1Trails,CM1Trails.Cycle,CM1Trails.Sample,CM2PracTrials,CM2PracTrials.Cycle,CM2PracTrials.Sample,CM2Trials,CM2Trials.Cycle,CM2Trials.Sample,CorrectSubj1,CorrectSubj2,Procedure[SubTrial],Running[SubTrial],Screen1_Obj_Colour,Screen2_Obj_Colour,Screen_1_Obj_Pos,Screen_2_Obj_Pos,Subject1ACC,Subject1RESP,Subject1RT,Subject2ACC,Subject2RESP,Subject2RT
DualSimon,3004,1,"<?xml version=""1.0""?>\n<Clock xmlns:dt=""urn:schemas-microsoft-com:datatypes""><Description dt:dt=""string"">E-Prime Primary Realtime Clock</Description><StartTime><Timestamp dt:dt=""int"">0</Timestamp><DateUtc dt:dt=""string"">2017-10-10T17:29:47Z</DateUtc></StartTime><FrequencyChanges><FrequencyChange><Frequency dt:dt=""r8"">2923154</Frequency><Timestamp dt:dt=""r8"">323171865543</Timestamp><Current dt:dt=""r8"">0</Current><DateUtc dt:dt=""string"">2017-10-10T17:29:47Z</DateUtc></FrequencyChange></FrequencyChanges></Clock>\n",DualSimon-003004-1,59.955,59.955,1.0.0.509,1,1049902461,Professional,2.0.10.353,2.0.10.353,10/10/2017,10/10/2017 17:29,18:29:48,2.0.10.248,1,1,1,1,CM1,List1,1,NULL,NULL,NULL,1,1,1,CM1Prac,BlockList4,1,3,2,1,NULL,NULL,NULL,NULL,NULL,NULL,NULL,NULL,NULL,e,w,TrialProc2,CM1PracTrails1,blue,red,e,w,1,e,759,0,e,654
DualSimon,3004,1,"<?xml version=""1.0""?>\n<Clock xmlns:dt=""urn:schemas-microsoft-com:datatypes""><Description dt:dt=""string"">E-Prime Primary Realtime Clock</Description><StartTime><Timestamp dt:dt=""int"">0</Timestamp><DateUtc dt:dt=""string"">2017-10-10T17:29:47Z</DateUtc></StartTime><FrequencyChanges><FrequencyChange><Frequency dt:dt=""r8"">2923154</Frequency><Timestamp dt:dt=""r8"">323171865543</Timestamp><Current dt:dt=""r8"">0</Current><DateUtc dt:dt=""string"">2017-10-10T17:29:47Z</DateUtc></FrequencyChange></FrequencyChanges></Clock>\n",DualSimon-003004-1,59.955,59.955,1.0.0.509,1,1049902461,Professional,2.0.10.353,2.0.10.353,10/10/2017,10/10/2017 17:29,18:29:48,2.0.10.248,1,1,1,1,CM1,List1,1,NULL,NULL,NULL,1,1,1,CM1Prac,BlockList4,2,1,2,2,NULL,NULL,NULL,NULL,NULL,NULL,NULL,NULL,NULL,e,e,TrialProc2,CM1PracTrails1,blue,blue,e,e,1,e,533,1,e,797
DualSimon,3004,1,"<?xml version=""1.0""?>\n<Clock xmlns:dt=""urn:schemas-microsoft-com:datatypes""><Description dt:dt=""string"">E-Prime Primary Realtime Clock</Description><StartTime><Timestamp dt:dt=""int"">0</Timestamp><DateUtc dt:dt=""string"">2017-10-10T17:29:47Z</DateUtc></StartTime><FrequencyChanges><FrequencyChange><Frequency dt:dt=""r8"">2923154</Frequency><Timestamp dt:dt=""r8"">323171865543</Timestamp><Current dt:dt=""r8"">0</Current><DateUtc dt:dt=""string"">2017-10-10T17:29:47Z</DateUtc></FrequencyChange></FrequencyChanges></Clock>\n",DualSimon-003004-1,59.955,59.955,1.0.0.509,1,1049902461,Professional,2.0.10.353,2.0.10.353,10/10/2017,10/10/2017 17:29,18:29:48,2.0.10.248,1,1,1,1,CM1,List1,1,NULL,NULL,NULL,1,1,1,CM1Prac,BlockList4,3,9,2,3,NULL,NULL,NULL,NULL,NULL,NULL,NULL,NULL,NULL,e,e,TrialProc2,CM1PracTrails1,blue,blue,e,e,1,e,585,1,e,365
DualSimon,3004,1,"<?xml version=""1.0""?>\n<Clock xmlns:dt=""urn:schemas-microsoft-com:datatypes""><Description dt:dt=""string"">E-Prime Primary Realtime Clock</Description><StartTime><Timestamp dt:dt=""int"">0</Timestamp><DateUtc dt:dt=""string"">2017-10-10T17:29:47Z</DateUtc></StartTime><FrequencyChanges><FrequencyChange><Frequency dt:dt=""r8"">2923154</Frequency><Timestamp dt:dt=""r8"">323171865543</Timestamp><Current dt:dt=""r8"">0</Current><DateUtc dt:dt=""string"">2017-10-10T17:29:47Z</DateUtc></FrequencyChange></FrequencyChanges></Clock>\n",DualSimon-003004-1,59.955,59.955,1.0.0.509,1,1049902461,Professional,2.0.10.353,2.0.10.353,10/10/2017,10/10/2017 17:29,18:29:48,2.0.10.248,1,1,1,1,CM1,List1,1,NULL,NULL,NULL,1,1,1,CM1Prac,BlockList4,4,14,2,4,NULL,NULL,NULL,NULL,NULL,NULL,NULL,NULL,NULL,w,w,TrialProc2,CM1PracTrails1,red,red,e,e,1,w,422,1,w,396
DualSimon,3004,1,"<?xml version=""1.0""?>\n<Clock xmlns:dt=""urn:schemas-microsoft-com:datatypes""><Description dt:dt=""string"">E-Prime Primary Realtime Clock</Description><StartTime><Timestamp dt:dt=""int"">0</Timestamp><DateUtc dt:dt=""string"">2017-10-10T17:29:47Z</DateUtc></StartTime><FrequencyChanges><FrequencyChange><Frequency dt:dt=""r8"">2923154</Frequency><Timestamp dt:dt=""r8"">323171865543</Timestamp><Current dt:dt=""r8"">0</Current><DateUtc dt:dt=""string"">2017-10-10T17:29:47Z</DateUtc></FrequencyChange></FrequencyChanges></Clock>\n",DualSimon-003004-1,59.955,59.955,1.0.0.509,1,1049902461,Professional,2.0.10.353,2.0.10.353,10/10/2017,10/10/2017 17:29,18:29:48,2.0.10.248,1,1,1,1,CM1,List1,1,NULL,NULL,NULL,1,1,1,CM1Prac,BlockList4,5,6,2,5,NULL,NULL,NULL,NULL,NULL,NULL,NULL,NULL,NULL,w,w,TrialProc2,CM1PracTrails1,red,red,e,e,1,w,522,1,w,1467
DualSimon,3004,1,"<?xml version=""1.0""?>\n<Clock xmlns:dt=""urn:schemas-microsoft-com:datatypes""><Description dt:dt=""string"">E-Prime Primary Realtime Clock</Description><StartTime><Timestamp dt:dt=""int"">0</Timestamp><DateUtc dt:dt=""string"">2017-10-10T17:29:47Z</DateUtc></StartTime><FrequencyChanges><FrequencyChange><Frequency dt:dt=""r8"">2923154</Frequency><Timestamp dt:dt=""r8"">323171865543</Timestamp><Current dt:dt=""r8"">0</Current><DateUtc dt:dt=""string"">2017-10-10T17:29:47Z</DateUtc></FrequencyChange></FrequencyChanges></Clock>\n",DualSimon-003004-1,59.955,59.955,1.0.0.509,1,1049902461,Professional,2.0.10.353,2.0.10.353,10/10/2017,10/10/2017 17:29,18:29:48,2.0.10.248,1,1,1,1,CM1,List1,1,NULL,NULL,NULL,1,1,1,CM1Prac,BlockList4,6,13,2,6,NULL,NULL,NULL,NULL,NULL,NULL,NULL,NULL,NULL,e,e,TrialProc2,CM1PracTrails1,blue,blue,w,w,1,e,1660,1,e,507
DualSimon,3004,1,"<?xml version=""1.0""?>\n<Clock xmlns:dt=""urn:schemas-microsoft-com:datatypes""><Description dt:dt=""string"">E-Prime Primary Realtime Clock</Description><StartTime><Timestamp dt:dt=""int"">0</Timestamp><DateUtc dt:dt=""string"">2017-10-10T17:29:47Z</DateUtc></StartTime><FrequencyChanges><FrequencyChange><Frequency dt:dt=""r8"">2923154</Frequency><Timestamp dt:dt=""r8"">323171865543</Timestamp><Current dt:dt=""r8"">0</Current><DateUtc dt:dt=""string"">2017-10-10T17:29:47Z</DateUtc></FrequencyChange></FrequencyChanges></Clock>\n",DualSimon-003004-1,59.955,59.955,1.0.0.509,1,1049902461,Professional,2.0.10.353,2.0.10.353,10/10/2017,10/10/2017 17:29,18:29:48,2.0.10.248,1,1,1,1,CM1,List1,1,NULL,NULL,NULL,1,1,1,CM1Prac,BlockList4,7,2,2,7,NULL,NULL,NULL,NULL,NULL,NULL,NULL,NULL,NULL,w,w,TrialProc2,CM1PracTrails1,red,red,w,w,1,w,452,1,w,1051
DualSimon,3004,1,"<?xml version=""1.0""?>\n<Clock xmlns:dt=""urn:schemas-microsoft-com:datatypes""><Description dt:dt=""string"">E-Prime Primary Realtime Clock</Description><StartTime><Timestamp dt:dt=""int"">0</Timestamp><DateUtc dt:dt=""string"">2017-10-10T17:29:47Z</DateUtc></StartTime><FrequencyChanges><FrequencyChange><Frequency dt:dt=""r8"">2923154</Frequency><Timestamp dt:dt=""r8"">323171865543</Timestamp><Current dt:dt=""r8"">0</Current><DateUtc dt:dt=""string"">2017-10-10T17:29:47Z</DateUtc></FrequencyChange></FrequencyChanges></Clock>\n",DualSimon-003004-1,59.955,59.955,1.0.0.509,1,1049902461,Professional,2.0.10.353,2.0.10.353,10/10/2017,10/10/2017 17:29,18:29:48,2.0.10.248,1,1,1,1,CM1,List1,1,NULL,NULL,NULL,1,1,1,CM1Prac,BlockList4,8,15,2,8,NULL,NULL,NULL,NULL,NULL,NULL,NULL,NULL,NULL,e,w,TrialProc2,CM1PracTrails1,blue,red,w,e,1,e,457,1,w,533
DualSimon,3004,1,"<?xml version=""1.0""?>\n<Clock xmlns:dt=""urn:schemas-microsoft-com:datatypes""><Description dt:dt=""string"">E-Prime Primary Realtime Clock</Description><StartTime><Timestamp dt:dt=""int"">0</Timestamp><DateUtc dt:dt=""string"">2017-10-10T17:29:47Z</DateUtc></StartTime><FrequencyChanges><FrequencyChange><Frequency dt:dt=""r8"">2923154</Frequency><Timestamp dt:dt=""r8"">323171865543</Timestamp><Current dt:dt=""r8"">0</Current><DateUtc dt:dt=""string"">2017-10-10T17:29:47Z</DateUtc></FrequencyChange></FrequencyChanges></Clock>\n",DualSimon-003004-1,59.955,59.955,1.0.0.509,1,1049902461,Professional,2.0.10.353,2.0.10.353,10/10/2017,10/10/2017 17:29,18:29:48,2.0.10.248,1,1,1,1,CM1,List1,1,NULL,NULL,NULL,1,1,1,CM1Prac,BlockList4,9,7,2,9,NULL,NULL,NULL,NULL,NULL,NULL,NULL,NULL,NULL,e,w,TrialProc2,CM1PracTrails1,blue,red,w,e,1,e,414,1,w,433
DualSimon,3004,1,"<?xml version=""1.0""?>\n<Clock xmlns:dt=""urn:schemas-microsoft-com:datatypes""><Description dt:dt=""string"">E-Prime Primary Realtime Clock</Description><StartTime><Timestamp dt:dt=""int"">0</Timestamp><DateUtc dt:dt=""string"">2017-10-10T17:29:47Z</DateUtc></StartTime><FrequencyChanges><FrequencyChange><Frequency dt:dt=""r8"">2923154</Frequency><Timestamp dt:dt=""r8"">323171865543</Timestamp><Current dt:dt=""r8"">0</Current><DateUtc dt:dt=""string"">2017-10-10T17:29:47Z</DateUtc></FrequencyChange></FrequencyChanges></Clock>\n",DualSimon-003004-1,59.955,59.955,1.0.0.509,1,1049902461,Professional,2.0.10.353,2.0.10.353,10/10/2017,10/10/2017 17:29,18:29:48,2.0.10.248,1,1,1,1,CM1,List1,1,NULL,NULL,NULL,1,1,1,CM1Prac,BlockList4,10,4,2,10,NULL,NULL,NULL,NULL,NULL,NULL,NULL,NULL,NULL,w,e,TrialProc2,CM1PracTrails1,red,blue,w,e,1,w,404,1,e,345
DualSimon,3004,1,"<?xml version=""1.0""?>\n<Clock xmlns:dt=""urn:schemas-microsoft-com:datatypes""><Description dt:dt=""string"">E-Prime Primary Realtime Clock</Description><StartTime><Timestamp dt:dt=""int"">0</Timestamp><DateUtc dt:dt=""string"">2017-10-10T17:29:47Z</DateUtc></StartTime><FrequencyChanges><FrequencyChange><Frequency dt:dt=""r8"">2923154</Frequency><Timestamp dt:dt=""r8"">323171865543</Timestamp><Current dt:dt=""r8"">0</Current><DateUtc dt:dt=""string"">2017-10-10T17:29:47Z</DateUtc></FrequencyChange></FrequencyChanges></Clock>\n",DualSimon-003004-1,59.955,59.955,1.0.0.509,1,1049902461,Professional,2.0.10.353,2.0.10.353,10/10/2017,10/10/2017 17:29,18:29:48,2.0.10.248,1,1,1,1,CM1,List1,1,NULL,NULL,NULL,1,1,1,CM1Prac,BlockList4,11,16,2,11,NULL,NULL,NULL,NULL,NULL,NULL,NULL,NULL,NULL,w,e,TrialProc2,CM1PracTrails1,red,blue,e,w,1,w,289,0,w,260
DualSimon,3004,1,"<?xml version=""1.0""?>\n<Clock xmlns:dt=""urn:schemas-microsoft-com:datatypes""><Description dt:dt=""string"">E-Prime Primary Realtime Clock</Description><StartTime><Timestamp dt:dt=""int"">0</Timestamp><DateUtc dt:dt=""string"">2017-10-10T17:29:47Z</DateUtc></StartTime><FrequencyChanges><FrequencyChange><Frequency dt:dt=""r8"">2923154</Frequency><Timestamp dt:dt=""r8"">323171865543</Timestamp><Current dt:dt=""r8"">0</Current><DateUtc dt:dt=""string"">2017-10-10T17:29:47Z</DateUtc></FrequencyChange></FrequencyChanges></Clock>\n",DualSimon-003004-1,59.955,59.955,1.0.0.509,1,1049902461,Professional,2.0.10.353,2.0.10.353,10/10/2017,10/10/2017 17:29,18:29:48,2.0.10.248,1,1,1,1,CM1,List1,1,NULL,NULL,NULL,1,1,1,CM1Prac,BlockList4,12,12,2,12,NULL,NULL,NULL,NULL,NULL,NULL,NULL,NULL,NULL,w,e,TrialProc2,CM1PracTrails1,red,blue,w,e,1,w,484,1,e,776
DualSimon,3004,1,"<?xml version=""1.0""?>\n<Clock xmlns:dt=""urn:schemas-microsoft-com:datatypes""><Description dt:dt=""string"">E-Prime Primary Realtime Clock</Description><StartTime><Timestamp dt:dt=""int"">0</Timestamp><DateUtc dt:dt=""string"">2017-10-10T17:29:47Z</DateUtc></StartTime><FrequencyChanges><FrequencyChange><Frequency dt:dt=""r8"">2923154</Frequency><Timestamp dt:dt=""r8"">323171865543</Timestamp><Current dt:dt=""r8"">0</Current><DateUtc dt:dt=""string"">2017-10-10T17:29:47Z</DateUtc></FrequencyChange></FrequencyChanges></Clock>\n",DualSimon-003004-1,59.955,59.955,1.0.0.509,1,1049902461,Professional,2.0.10.353,2.0.10.353,10/10/2017,10/10/2017 17:29,18:29:48,2.0.10.248,1,1,1,1,CM1,List1,1,NULL,NULL,NULL,1,1,1,CM1Prac,BlockList4,13,11,2,13,NULL,NULL,NULL,NULL,NULL,NULL,NULL,NULL,NULL,e,w,TrialProc2,CM1PracTrails1,blue,red,e,w,1,e,334,1,w,537
DualSimon,3004,1,"<?xml version=""1.0""?>\n<Clock xmlns:dt=""urn:schemas-microsoft-com:datatypes""><Description dt:dt=""string"">E-Prime Primary Realtime Clock</Description><StartTime><Timestamp dt:dt=""int"">0</Timestamp><DateUtc dt:dt=""string"">2017-10-10T17:29:47Z</DateUtc></StartTime><FrequencyChanges><FrequencyChange><Frequency dt:dt=""r8"">2923154</Frequency><Timestamp dt:dt=""r8"">323171865543</Timestamp><Current dt:dt=""r8"">0</Current><DateUtc dt:dt=""string"">2017-10-10T17:29:47Z</DateUtc></FrequencyChange></FrequencyChanges></Clock>\n",DualSimon-003004-1,59.955,59.955,1.0.0.509,1,1049902461,Professional,2.0.10.353,2.0.10.353,10/10/2017,10/10/2017 17:29,18:29:48,2.0.10.248,1,1,1,1,CM1,List1,1,NULL,NULL,NULL,1,1,1,CM1Prac,BlockList4,14,8,2,14,NULL,NULL,NULL,NULL,NULL,NULL,NULL,NULL,NULL,w,e,TrialProc2,CM1PracTrails1,red,blue,e,w,1,w,565,1,e,699
DualSimon,3004,1,"<?xml version=""1.0""?>\n<Clock xmlns:dt=""urn:schemas-microsoft-com:datatypes""><Description dt:dt=""string"">E-Prime Primary Realtime Clock</Description><StartTime><Timestamp dt:dt=""int"">0</Timestamp><DateUtc dt:dt=""string"">2017-10-10T17:29:47Z</DateUtc></StartTime><FrequencyChanges><FrequencyChange><Frequency dt:dt=""r8"">2923154</Frequency><Timestamp dt:dt=""r8"">323171865543</Timestamp><Current dt:dt=""r8"">0</Current><DateUtc dt:dt=""string"">2017-10-10T17:29:47Z</DateUtc></FrequencyChange></FrequencyChanges></Clock>\n",DualSimon-003004-1,59.955,59.955,1.0.0.509,1,1049902461,Professional,2.0.10.353,2.0.10.353,10/10/2017,10/10/2017 17:29,18:29:48,2.0.10.248,1,1,1,1,CM1,List1,1,NULL,NULL,NULL,1,1,1,CM1Prac,BlockList4,15,10,2,15,NULL,NULL,NULL,NULL,NULL,NULL,NULL,NULL,NULL,w,w,TrialProc2,CM1PracTrails1,red,red,w,w,1,w,349,1,w,501
DualSimon,3004,1,"<?xml version=""1.0""?>\n<Clock xmlns:dt=""urn:schemas-microsoft-com:datatypes""><Description dt:dt=""string"">E-Prime Primary Realtime Clock</Description><StartTime><Timestamp dt:dt=""int"">0</Timestamp><DateUtc dt:dt=""string"">2017-10-10T17:29:47Z</DateUtc></StartTime><FrequencyChanges><FrequencyChange><Frequency dt:dt=""r8"">2923154</Frequency><Timestamp dt:dt=""r8"">323171865543</Timestamp><Current dt:dt=""r8"">0</Current><DateUtc dt:dt=""string"">2017-10-10T17:29:47Z</DateUtc></FrequencyChange></FrequencyChanges></Clock>\n",DualSimon-003004-1,59.955,59.955,1.0.0.509,1,1049902461,Professional,2.0.10.353,2.0.10.353,10/10/2017,10/10/2017 17:29,18:29:48,2.0.10.248,1,1,1,1,CM1,List1,1,NULL,NULL,NULL,1,1,1,CM1Prac,BlockList4,16,5,2,16,NULL,NULL,NULL,NULL,NULL,NULL,NULL,NULL,NULL,e,e,TrialProc2,CM1PracTrails1,blue,blue,w,w,1,e,498,1,e,542
DualSimon,3004,1,"<?xml version=""1.0""?>\n<Clock xmlns:dt=""urn:schemas-microsoft-com:datatypes""><Description dt:dt=""string"">E-Prime Primary Realtime Clock</Description><StartTime><Timestamp dt:dt=""int"">0</Timestamp><DateUtc dt:dt=""string"">2017-10-10T17:29:47Z</DateUtc></StartTime><FrequencyChanges><FrequencyChange><Frequency dt:dt=""r8"">2923154</Frequency><Timestamp dt:dt=""r8"">323171865543</Timestamp><Current dt:dt=""r8"">0</Current><DateUtc dt:dt=""string"">2017-10-10T17:29:47Z</DateUtc></FrequencyChange></FrequencyChanges></Clock>\n",DualSimon-003004-1,59.955,59.955,1.0.0.509,1,1049902461,Professional,2.0.10.353,2.0.10.353,10/10/2017,10/10/2017 17:29,18:29:48,2.0.10.248,1,1,1,1,CM1,List1,2,NULL,NULL,NULL,2,1,2,InstruProc,BlockList4,NULL,NULL,NULL,NULL,NULL,NULL,NULL,NULL,NULL,NULL,NULL,NULL,NULL,NULL,NULL,NULL,NULL,NULL,NULL,NULL,NULL,NULL,NULL,NULL,NULL,NULL,NULL
DualSimon,3004,1,"<?xml version=""1.0""?>\n<Clock xmlns:dt=""urn:schemas-microsoft-com:datatypes""><Description dt:dt=""string"">E-Prime Primary Realtime Clock</Description><StartTime><Timestamp dt:dt=""int"">0</Timestamp><DateUtc dt:dt=""string"">2017-10-10T17:29:47Z</DateUtc></StartTime><FrequencyChanges><FrequencyChange><Frequency dt:dt=""r8"">2923154</Frequency><Timestamp dt:dt=""r8"">323171865543</Timestamp><Current dt:dt=""r8"">0</Current><DateUtc dt:dt=""string"">2017-10-10T17:29:47Z</DateUtc></FrequencyChange></FrequencyChanges></Clock>\n",DualSimon-003004-1,59.955,59.955,1.0.0.509,1,1049902461,Professional,2.0.10.353,2.0.10.353,10/10/2017,10/10/2017 17:29,18:29:48,2.0.10.248,1,1,1,1,CM1,List1,3,NULL,NULL,NULL,3,1,3,b1,BlockList4,1,NULL,NULL,NULL,71,2,1,NULL,NULL,NULL,NULL,NULL,NULL,w,w,TrialProc,CM1Trails,red,red,e,e,1,w,526,1,w,761
DualSimon,3004,1,"<?xml version=""1.0""?>\n<Clock xmlns:dt=""urn:schemas-microsoft-com:datatypes""><Description dt:dt=""string"">E-Prime Primary Realtime Clock</Description><StartTime><Timestamp dt:dt=""int"">0</Timestamp><DateUtc dt:dt=""string"">2017-10-10T17:29:47Z</DateUtc></StartTime><FrequencyChanges><FrequencyChange><Frequency dt:dt=""r8"">2923154</Frequency><Timestamp dt:dt=""r8"">323171865543</Timestamp><Current dt:dt=""r8"">0</Current><DateUtc dt:dt=""string"">2017-10-10T17:29:47Z</DateUtc></FrequencyChange></FrequencyChanges></Clock>\n",DualSimon-003004-1,59.955,59.955,1.0.0.509,1,1049902461,Professional,2.0.10.353,2.0.10.353,10/10/2017,10/10/2017 17:29,18:29:48,2.0.10.248,1,1,1,1,CM1,List1,3,NULL,NULL,NULL,3,1,3,b1,BlockList4,2,NULL,NULL,NULL,4,2,2,NULL,NULL,NULL,NULL,NULL,NULL,w,e,TrialProc,CM1Trails,red,blue,w,e,1,w,319,1,e,323
DualSimon,3004,1,"<?xml version=""1.0""?>\n<Clock xmlns:dt=""urn:schemas-microsoft-com:datatypes""><Description dt:dt=""string"">E-Prime Primary Realtime Clock</Description><StartTime><Timestamp dt:dt=""int"">0</Timestamp><DateUtc dt:dt=""string"">2017-10-10T17:29:47Z</DateUtc></StartTime><FrequencyChanges><FrequencyChange><Frequency dt:dt=""r8"">2923154</Frequency><Timestamp dt:dt=""r8"">323171865543</Timestamp><Current dt:dt=""r8"">0</Current><DateUtc dt:dt=""string"">2017-10-10T17:29:47Z</DateUtc></FrequencyChange></FrequencyChanges></Clock>\n",DualSimon-003004-1,59.955,59.955,1.0.0.509,1,1049902461,Professional,2.0.10.353,2.0.10.353,10/10/2017,10/10/2017 17:29,18:29:48,2.0.10.248,1,1,1,1,CM1,List1,3,NULL,NULL,NULL,3,1,3,b1,BlockList4,3,NULL,NULL,NULL,88,2,3,NULL,NULL,NULL,NULL,NULL,NULL,w,e,TrialProc,CM1Trails,red,blue,e,w,1,w,374,1,e,529
DualSimon,3004,1,"<?xml version=""1.0""?>\n<Clock xmlns:dt=""urn:schemas-microsoft-com:datatypes""><Description dt:dt=""string"">E-Prime Primary Realtime Clock</Description><StartTime><Timestamp dt:dt=""int"">0</Timestamp><DateUtc dt:dt=""string"">2017-10-10T17:29:47Z</DateUtc></StartTime><FrequencyChanges><FrequencyChange><Frequency dt:dt=""r8"">2923154</Frequency><Timestamp dt:dt=""r8"">323171865543</Timestamp><Current dt:dt=""r8"">0</Current><DateUtc dt:dt=""string"">2017-10-10T17:29:47Z</DateUtc></FrequencyChange></FrequencyChanges></Clock>\n",DualSimon-003004-1,59.955,59.955,1.0.0.509,1,1049902461,Professional,2.0.10.353,2.0.10.353,10/10/2017,10/10/2017 17:29,18:29:48,2.0.10.248,1,1,1,1,CM1,List1,3,NULL,NULL,NULL,3,1,3,b1,BlockList4,4,NULL,NULL,NULL,40,2,4,NULL,NULL,NULL,NULL,NULL,NULL,e,w,TrialProc,CM1Trails,blue,red,e,w,0,w,271,1,w,579
DualSimon,3004,1,"<?xml version=""1.0""?>\n<Clock xmlns:dt=""urn:schemas-microsoft-com:datatypes""><Description dt:dt=""string"">E-Prime Primary Realtime Clock</Description><StartTime><Timestamp dt:dt=""int"">0</Timestamp><DateUtc dt:dt=""string"">2017-10-10T17:29:47Z</DateUtc></StartTime><FrequencyChanges><FrequencyChange><Frequency dt:dt=""r8"">2923154</Frequency><Timestamp dt:dt=""r8"">323171865543</Timestamp><Current dt:dt=""r8"">0</Current><DateUtc dt:dt=""string"">2017-10-10T17:29:47Z</DateUtc></FrequencyChange></FrequencyChanges></Clock>\n",DualSimon-003004-1,59.955,59.955,1.0.0.509,1,1049902461,Professional,2.0.10.353,2.0.10.353,10/10/2017,10/10/2017 17:29,18:29:48,2.0.10.248,1,1,1,1,CM1,List1,3,NULL,NULL,NULL,3,1,3,b1,BlockList4,5,NULL,NULL,NULL,64,2,5,NULL,NULL,NULL,NULL,NULL,NULL,w,w,TrialProc,CM1Trails,red,red,e,e,1,w,334,1,w,502
DualSimon,3004,1,"<?xml version=""1.0""?>\n<Clock xmlns:dt=""urn:schemas-microsoft-com:datatypes""><Description dt:dt=""string"">E-Prime Primary Realtime Clock</Description><StartTime><Timestamp dt:dt=""int"">0</Timestamp><DateUtc dt:dt=""string"">2017-10-10T17:29:47Z</DateUtc></StartTime><FrequencyChanges><FrequencyChange><Frequency dt:dt=""r8"">2923154</Frequency><Timestamp dt:dt=""r8"">323171865543</Timestamp><Current dt:dt=""r8"">0</Current><DateUtc dt:dt=""string"">2017-10-10T17:29:47Z</DateUtc></FrequencyChange></FrequencyChanges></Clock>\n",DualSimon-003004-1,59.955,59.955,1.0.0.509,1,1049902461,Professional,2.0.10.353,2.0.10.353,10/10/2017,10/10/2017 17:29,18:29:48,2.0.10.248,1,1,1,1,CM1,List1,3,NULL,NULL,NULL,3,1,3,b1,BlockList4,6,NULL,NULL,NULL,84,2,6,NULL,NULL,NULL,NULL,NULL,NULL,e,w,TrialProc,CM1Trails,blue,red,w,e,1,e,433,1,w,349
DualSimon,3004,1,"<?xml version=""1.0""?>\n<Clock xmlns:dt=""urn:schemas-microsoft-com:datatypes""><Description dt:dt=""string"">E-Prime Primary Realtime Clock</Description><StartTime><Timestamp dt:dt=""int"">0</Timestamp><DateUtc dt:dt=""string"">2017-10-10T17:29:47Z</DateUtc></StartTime><FrequencyChanges><FrequencyChange><Frequency dt:dt=""r8"">2923154</Frequency><Timestamp dt:dt=""r8"">323171865543</Timestamp><Current dt:dt=""r8"">0</Current><DateUtc dt:dt=""string"">2017-10-10T17:29:47Z</DateUtc></FrequencyChange></FrequencyChanges></Clock>\n",DualSimon-003004-1,59.955,59.955,1.0.0.509,1,1049902461,Professional,2.0.10.353,2.0.10.353,10/10/2017,10/10/2017 17:29,18:29:48,2.0.10.248,1,1,1,1,CM1,List1,3,NULL,NULL,NULL,3,1,3,b1,BlockList4,7,NULL,NULL,NULL,5,2,7,NULL,NULL,NULL,NULL,NULL,NULL,e,e,TrialProc,CM1Trails,blue,blue,w,w,1,e,460,1,e,338
DualSimon,3004,1,"<?xml version=""1.0""?>\n<Clock xmlns:dt=""urn:schemas-microsoft-com:datatypes""><Description dt:dt=""string"">E-Prime Primary Realtime Clock</Description><StartTime><Timestamp dt:dt=""int"">0</Timestamp><DateUtc dt:dt=""string"">2017-10-10T17:29:47Z</DateUtc></StartTime><FrequencyChanges><FrequencyChange><Frequency dt:dt=""r8"">2923154</Frequency><Timestamp dt:dt=""r8"">323171865543</Timestamp><Current dt:dt=""r8"">0</Current><DateUtc dt:dt=""string"">2017-10-10T17:29:47Z</DateUtc></FrequencyChange></FrequencyChanges></Clock>\n",DualSimon-003004-1,59.955,59.955,1.0.0.509,1,1049902461,Professional,2.0.10.353,2.0.10.353,10/10/2017,10/10/2017 17:29,18:29:48,2.0.10.248,1,1,1,1,CM1,List1,3,NULL,NULL,NULL,3,1,3,b1,BlockList4,8,NULL,NULL,NULL,89,2,8,NULL,NULL,NULL,NULL,NULL,NULL,w,e,TrialProc,CM1Trails,red,blue,e,w,1,w,270,1,e,512
DualSimon,3004,1,"<?xml version=""1.0""?>\n<Clock xmlns:dt=""urn:schemas-microsoft-com:datatypes""><Description dt:dt=""string"">E-Prime Primary Realtime Clock</Description><StartTime><Timestamp dt:dt=""int"">0</Timestamp><DateUtc dt:dt=""string"">2017-10-10T17:29:47Z</DateUtc></StartTime><FrequencyChanges><FrequencyChange><Frequency dt:dt=""r8"">2923154</Frequency><Timestamp dt:dt=""r8"">323171865543</Timestamp><Current dt:dt=""r8"">0</Current><DateUtc dt:dt=""string"">2017-10-10T17:29:47Z</DateUtc></FrequencyChange></FrequencyChanges></Clock>\n",DualSimon-003004-1,59.955,59.955,1.0.0.509,1,1049902461,Professional,2.0.10.353,2.0.10.353,10/10/2017,10/10/2017 17:29,18:29:48,2.0.10.248,1,1,1,1,CM1,List1,3,NULL,NULL,NULL,3,1,3,b1,BlockList4,9,NULL,NULL,NULL,92,2,9,NULL,NULL,NULL,NULL,NULL,NULL,w,e,TrialProc,CM1Trails,red,blue,e,w,1,w,373,1,e,399
DualSimon,3004,1,"<?xml version=""1.0""?>\n<Clock xmlns:dt=""urn:schemas-microsoft-com:datatypes""><Description dt:dt=""string"">E-Prime Primary Realtime Clock</Description><StartTime><Timestamp dt:dt=""int"">0</Timestamp><DateUtc dt:dt=""string"">2017-10-10T17:29:47Z</DateUtc></StartTime><FrequencyChanges><FrequencyChange><Frequency dt:dt=""r8"">2923154</Frequency><Timestamp dt:dt=""r8"">323171865543</Timestamp><Current dt:dt=""r8"">0</Current><DateUtc dt:dt=""string"">2017-10-10T17:29:47Z</DateUtc></FrequencyChange></FrequencyChanges></Clock>\n",DualSimon-003004-1,59.955,59.955,1.0.0.509,1,1049902461,Professional,2.0.10.353,2.0.10.353,10/10/2017,10/10/2017 17:29,18:29:48,2.0.10.248,1,1,1,1,CM1,List1,3,NULL,NULL,NULL,3,1,3,b1,BlockList4,10,NULL,NULL,NULL,53,2,10,NULL,NULL,NULL,NULL,NULL,NULL,e,e,TrialProc,CM1Trails,blue,blue,w,w,1,e,304,1,e,354
DualSimon,3004,1,"<?xml version=""1.0""?>\n<Clock xmlns:dt=""urn:schemas-microsoft-com:datatypes""><Description dt:dt=""string"">E-Prime Primary Realtime Clock</Description><StartTime><Timestamp dt:dt=""int"">0</Timestamp><DateUtc dt:dt=""string"">2017-10-10T17:29:47Z</DateUtc></StartTime><FrequencyChanges><FrequencyChange><Frequency dt:dt=""r8"">2923154</Frequency><Timestamp dt:dt=""r8"">323171865543</Timestamp><Current dt:dt=""r8"">0</Current><DateUtc dt:dt=""string"">2017-10-10T17:29:47Z</DateUtc></FrequencyChange></FrequencyChanges></Clock>\n",DualSimon-003004-1,59.955,59.955,1.0.0.509,1,1049902461,Professional,2.0.10.353,2.0.10.353,10/10/2017,10/10/2017 17:29,18:29:48,2.0.10.248,1,1,1,1,CM1,List1,3,NULL,NULL,NULL,3,1,3,b1,BlockList4,11,NULL,NULL,NULL,14,2,11,NULL,NULL,NULL,NULL,NULL,NULL,e,e,TrialProc,CM1Trails,blue,blue,e,e,1,e,444,1,e,323
DualSimon,3004,1,"<?xml version=""1.0""?>\n<Clock xmlns:dt=""urn:schemas-microsoft-com:datatypes""><Description dt:dt=""string"">E-Prime Primary Realtime Clock</Description><StartTime><Timestamp dt:dt=""int"">0</Timestamp><DateUtc dt:dt=""string"">2017-10-10T17:29:47Z</DateUtc></StartTime><FrequencyChanges><FrequencyChange><Frequency dt:dt=""r8"">2923154</Frequency><Timestamp dt:dt=""r8"">323171865543</Timestamp><Current dt:dt=""r8"">0</Current><DateUtc dt:dt=""string"">2017-10-10T17:29:47Z</DateUtc></FrequencyChange></FrequencyChanges></Clock>\n",DualSimon-003004-1,59.955,59.955,1.0.0.509,1,1049902461,Professional,2.0.10.353,2.0.10.353,10/10/2017,10/10/2017 17:29,18:29:48,2.0.10.248,1,1,1,1,CM1,List1,3,NULL,NULL,NULL,3,1,3,b1,BlockList4,12,NULL,NULL,NULL,31,2,12,NULL,NULL,NULL,NULL,NULL,NULL,e,w,TrialProc,CM1Trails,blue,red,e,w,1,e,407,1,w,291
DualSimon,3004,1,"<?xml version=""1.0""?>\n<Clock xmlns:dt=""urn:schemas-microsoft-com:datatypes""><Description dt:dt=""string"">E-Prime Primary Realtime Clock</Description><StartTime><Timestamp dt:dt=""int"">0</Timestamp><DateUtc dt:dt=""string"">2017-10-10T17:29:47Z</DateUtc></StartTime><FrequencyChanges><FrequencyChange><Frequency dt:dt=""r8"">2923154</Frequency><Timestamp dt:dt=""r8"">323171865543</Timestamp><Current dt:dt=""r8"">0</Current><DateUtc dt:dt=""string"">2017-10-10T17:29:47Z</DateUtc></FrequencyChange></FrequencyChanges></Clock>\n",DualSimon-003004-1,59.955,59.955,1.0.0.509,1,1049902461,Professional,2.0.10.353,2.0.10.353,10/10/2017,10/10/2017 17:29,18:29:48,2.0.10.248,1,1,1,1,CM1,List1,3,NULL,NULL,NULL,3,1,3,b1,BlockList4,13,NULL,NULL,NULL,93,2,13,NULL,NULL,NULL,NULL,NULL,NULL,w,e,TrialProc,CM1Trails,red,blue,e,w,1,w,350,1,e,461
DualSimon,3004,1,"<?xml version=""1.0""?>\n<Clock xmlns:dt=""urn:schemas-microsoft-com:datatypes""><Description dt:dt=""string"">E-Prime Primary Realtime Clock</Description><StartTime><Timestamp dt:dt=""int"">0</Timestamp><DateUtc dt:dt=""string"">2017-10-10T17:29:47Z</DateUtc></StartTime><FrequencyChanges><FrequencyChange><Frequency dt:dt=""r8"">2923154</Frequency><Timestamp dt:dt=""r8"">323171865543</Timestamp><Current dt:dt=""r8"">0</Current><DateUtc dt:dt=""string"">2017-10-10T17:29:47Z</DateUtc></FrequencyChange></FrequencyChanges></Clock>\n",DualSimon-003004-1,59.955,59.955,1.0.0.509,1,1049902461,Professional,2.0.10.353,2.0.10.353,10/10/2017,10/10/2017 17:29,18:29:48,2.0.10.248,1,1,1,1,CM1,List1,3,NULL,NULL,NULL,3,1,3,b1,BlockList4,14,NULL,NULL,NULL,58,2,14,NULL,NULL,NULL,NULL,NULL,NULL,e,e,TrialProc,CM1Trails,blue,blue,w,w,1,e,333,1,e,351
DualSimon,3004,1,"<?xml version=""1.0""?>\n<Clock xmlns:dt=""urn:schemas-microsoft-com:datatypes""><Description dt:dt=""string"">E-Prime Primary Realtime Clock</Description><StartTime><Timestamp dt:dt=""int"">0</Timestamp><DateUtc dt:dt=""string"">2017-10-10T17:29:47Z</DateUtc></StartTime><FrequencyChanges><FrequencyChange><Frequency dt:dt=""r8"">2923154</Frequency><Timestamp dt:dt=""r8"">323171865543</Timestamp><Current dt:dt=""r8"">0</Current><DateUtc dt:dt=""string"">2017-10-10T17:29:47Z</DateUtc></FrequencyChange></FrequencyChanges></Clock>\n",DualSimon-003004-1,59.955,59.955,1.0.0.509,1,1049902461,Professional,2.0.10.353,2.0.10.353,10/10/2017,10/10/2017 17:29,18:29:48,2.0.10.248,1,1,1,1,CM1,List1,3,NULL,NULL,NULL,3,1,3,b1,BlockList4,15,NULL,NULL,NULL,17,2,15,NULL,NULL,NULL,NULL,NULL,NULL,e,e,TrialProc,CM1Trails,blue,blue,e,e,1,e,352,1,e,422
DualSimon,3004,1,"<?xml version=""1.0""?>\n<Clock xmlns:dt=""urn:schemas-microsoft-com:datatypes""><Description dt:dt=""string"">E-Prime Primary Realtime Clock</Description><StartTime><Timestamp dt:dt=""int"">0</Timestamp><DateUtc dt:dt=""string"">2017-10-10T17:29:47Z</DateUtc></StartTime><FrequencyChanges><FrequencyChange><Frequency dt:dt=""r8"">2923154</Frequency><Timestamp dt:dt=""r8"">323171865543</Timestamp><Current dt:dt=""r8"">0</Current><DateUtc dt:dt=""string"">2017-10-10T17:29:47Z</DateUtc></FrequencyChange></FrequencyChanges></Clock>\n",DualSimon-003004-1,59.955,59.955,1.0.0.509,1,1049902461,Professional,2.0.10.353,2.0.10.353,10/10/2017,10/10/2017 17:29,18:29:48,2.0.10.248,1,1,1,1,CM1,List1,3,NULL,NULL,NULL,3,1,3,b1,BlockList4,16,NULL,NULL,NULL,76,2,16,NULL,NULL,NULL,NULL,NULL,NULL,e,w,TrialProc,CM1Trails,blue,red,w,e,1,e,381,0,e,356
DualSimon,3004,1,"<?xml version=""1.0""?>\n<Clock xmlns:dt=""urn:schemas-microsoft-com:datatypes""><Description dt:dt=""string"">E-Prime Primary Realtime Clock</Description><StartTime><Timestamp dt:dt=""int"">0</Timestamp><DateUtc dt:dt=""string"">2017-10-10T17:29:47Z</DateUtc></StartTime><FrequencyChanges><FrequencyChange><Frequency dt:dt=""r8"">2923154</Frequency><Timestamp dt:dt=""r8"">323171865543</Timestamp><Current dt:dt=""r8"">0</Current><DateUtc dt:dt=""string"">2017-10-10T17:29:47Z</DateUtc></FrequencyChange></FrequencyChanges></Clock>\n",DualSimon-003004-1,59.955,59.955,1.0.0.509,1,1049902461,Professional,2.0.10.353,2.0.10.353,10/10/2017,10/10/2017 17:29,18:29:48,2.0.10.248,1,1,1,1,CM1,List1,3,NULL,NULL,NULL,3,1,3,b1,BlockList4,17,NULL,NULL,NULL,23,2,17,NULL,NULL,NULL,NULL,NULL,NULL,w,w,TrialProc,CM1Trails,red,red,w,w,1,w,324,1,w,342
DualSimon,3004,1,"<?xml version=""1.0""?>\n<Clock xmlns:dt=""urn:schemas-microsoft-com:datatypes""><Description dt:dt=""string"">E-Prime Primary Realtime Clock</Description><StartTime><Timestamp dt:dt=""int"">0</Timestamp><DateUtc dt:dt=""string"">2017-10-10T17:29:47Z</DateUtc></StartTime><FrequencyChanges><FrequencyChange><Frequency dt:dt=""r8"">2923154</Frequency><Timestamp dt:dt=""r8"">323171865543</Timestamp><Current dt:dt=""r8"">0</Current><DateUtc dt:dt=""string"">2017-10-10T17:29:47Z</DateUtc></FrequencyChange></FrequencyChanges></Clock>\n",DualSimon-003004-1,59.955,59.955,1.0.0.509,1,1049902461,Professional,2.0.10.353,2.0.10.353,10/10/2017,10/10/2017 17:29,18:29:48,2.0.10.248,1,1,1,1,CM1,List1,3,NULL,NULL,NULL,3,1,3,b1,BlockList4,18,NULL,NULL,NULL,11,2,18,NULL,NULL,NULL,NULL,NULL,NULL,e,e,TrialProc,CM1Trails,blue,blue,e,e,1,e,324,1,e,358
DualSimon,3004,1,"<?xml version=""1.0""?>\n<Clock xmlns:dt=""urn:schemas-microsoft-com:datatypes""><Description dt:dt=""string"">E-Prime Primary Realtime Clock</Description><StartTime><Timestamp dt:dt=""int"">0</Timestamp><DateUtc dt:dt=""string"">2017-10-10T17:29:47Z</DateUtc></StartTime><FrequencyChanges><FrequencyChange><Frequency dt:dt=""r8"">2923154</Frequency><Timestamp dt:dt=""r8"">323171865543</Timestamp><Current dt:dt=""r8"">0</Current><DateUtc dt:dt=""string"">2017-10-10T17:29:47Z</DateUtc></FrequencyChange></FrequencyChanges></Clock>\n",DualSimon-003004-1,59.955,59.955,1.0.0.509,1,1049902461,Professional,2.0.10.353,2.0.10.353,10/10/2017,10/10/2017 17:29,18:29:48,2.0.10.248,1,1,1,1,CM1,List1,3,NULL,NULL,NULL,3,1,3,b1,BlockList4,19,NULL,NULL,NULL,34,2,19,NULL,NULL,NULL,NULL,NULL,NULL,e,w,TrialProc,CM1Trails,blue,red,e,w,1,e,307,1,w,317
DualSimon,3004,1,"<?xml version=""1.0""?>\n<Clock xmlns:dt=""urn:schemas-microsoft-com:datatypes""><Description dt:dt=""string"">E-Prime Primary Realtime Clock</Description><StartTime><Timestamp dt:dt=""int"">0</Timestamp><DateUtc dt:dt=""string"">2017-10-10T17:29:47Z</DateUtc></StartTime><FrequencyChanges><FrequencyChange><Frequency dt:dt=""r8"">2923154</Frequency><Timestamp dt:dt=""r8"">323171865543</Timestamp><Current dt:dt=""r8"">0</Current><DateUtc dt:dt=""string"">2017-10-10T17:29:47Z</DateUtc></FrequencyChange></FrequencyChanges></Clock>\n",DualSimon-003004-1,59.955,59.955,1.0.0.509,1,1049902461,Professional,2.0.10.353,2.0.10.353,10/10/2017,10/10/2017 17:29,18:29:48,2.0.10.248,1,1,1,1,CM1,List1,3,NULL,NULL,NULL,3,1,3,b1,BlockList4,20,NULL,NULL,NULL,26,2,20,NULL,NULL,NULL,NULL,NULL,NULL,w,w,TrialProc,CM1Trails,red,red,w,w,1,w,327,1,w,348
DualSimon,3004,1,"<?xml version=""1.0""?>\n<Clock xmlns:dt=""urn:schemas-microsoft-com:datatypes""><Description dt:dt=""string"">E-Prime Primary Realtime Clock</Description><StartTime><Timestamp dt:dt=""int"">0</Timestamp><DateUtc dt:dt=""string"">2017-10-10T17:29:47Z</DateUtc></StartTime><FrequencyChanges><FrequencyChange><Frequency dt:dt=""r8"">2923154</Frequency><Timestamp dt:dt=""r8"">323171865543</Timestamp><Current dt:dt=""r8"">0</Current><DateUtc dt:dt=""string"">2017-10-10T17:29:47Z</DateUtc></FrequencyChange></FrequencyChanges></Clock>\n",DualSimon-003004-1,59.955,59.955,1.0.0.509,1,1049902461,Professional,2.0.10.353,2.0.10.353,10/10/2017,10/10/2017 17:29,18:29:48,2.0.10.248,1,1,1,1,CM1,List1,3,NULL,NULL,NULL,3,1,3,b1,BlockList4,21,NULL,NULL,NULL,8,2,21,NULL,NULL,NULL,NULL,NULL,NULL,w,e,TrialProc,CM1Trails,red,blue,e,w,1,w,280,1,e,441
DualSimon,3004,1,"<?xml version=""1.0""?>\n<Clock xmlns:dt=""urn:schemas-microsoft-com:datatypes""><Description dt:dt=""string"">E-Prime Primary Realtime Clock</Description><StartTime><Timestamp dt:dt=""int"">0</Timestamp><DateUtc dt:dt=""string"">2017-10-10T17:29:47Z</DateUtc></StartTime><FrequencyChanges><FrequencyChange><Frequency dt:dt=""r8"">2923154</Frequency><Timestamp dt:dt=""r8"">323171865543</Timestamp><Current dt:dt=""r8"">0</Current><DateUtc dt:dt=""string"">2017-10-10T17:29:47Z</DateUtc></FrequencyChange></FrequencyChanges></Clock>\n",DualSimon-003004-1,59.955,59.955,1.0.0.509,1,1049902461,Professional,2.0.10.353,2.0.10.353,10/10/2017,10/10/2017 17:29,18:29:48,2.0.10.248,1,1,1,1,CM1,List1,3,NULL,NULL,NULL,3,1,3,b1,BlockList4,22,NULL,NULL,NULL,73,2,22,NULL,NULL,NULL,NULL,NULL,NULL,w,w,TrialProc,CM1Trails,red,red,e,e,1,w,307,1,w,392
DualSimon,3004,1,"<?xml version=""1.0""?>\n<Clock xmlns:dt=""urn:schemas-microsoft-com:datatypes""><Description dt:dt=""string"">E-Prime Primary Realtime Clock</Description><StartTime><Timestamp dt:dt=""int"">0</Timestamp><DateUtc dt:dt=""string"">2017-10-10T17:29:47Z</DateUtc></StartTime><FrequencyChanges><FrequencyChange><Frequency dt:dt=""r8"">2923154</Frequency><Timestamp dt:dt=""r8"">323171865543</Timestamp><Current dt:dt=""r8"">0</Current><DateUtc dt:dt=""string"">2017-10-10T17:29:47Z</DateUtc></FrequencyChange></FrequencyChanges></Clock>\n",DualSimon-003004-1,59.955,59.955,1.0.0.509,1,1049902461,Professional,2.0.10.353,2.0.10.353,10/10/2017,10/10/2017 17:29,18:29:48,2.0.10.248,1,1,1,1,CM1,List1,3,NULL,NULL,NULL,3,1,3,b1,BlockList4,23,NULL,NULL,NULL,68,2,23,NULL,NULL,NULL,NULL,NULL,NULL,w,w,TrialProc,CM1Trails,red,red,e,e,1,w,299,1,w,2758
DualSimon,3004,1,"<?xml version=""1.0""?>\n<Clock xmlns:dt=""urn:schemas-microsoft-com:datatypes""><Description dt:dt=""string"">E-Prime Primary Realtime Clock</Description><StartTime><Timestamp dt:dt=""int"">0</Timestamp><DateUtc dt:dt=""string"">2017-10-10T17:29:47Z</DateUtc></StartTime><FrequencyChanges><FrequencyChange><Frequency dt:dt=""r8"">2923154</Frequency><Timestamp dt:dt=""r8"">323171865543</Timestamp><Current dt:dt=""r8"">0</Current><DateUtc dt:dt=""string"">2017-10-10T17:29:47Z</DateUtc></FrequencyChange></FrequencyChanges></Clock>\n",DualSimon-003004-1,59.955,59.955,1.0.0.509,1,1049902461,Professional,2.0.10.353,2.0.10.353,10/10/2017,10/10/2017 17:29,18:29:48,2.0.10.248,1,1,1,1,CM1,List1,3,NULL,NULL,NULL,3,1,3,b1,BlockList4,24,NULL,NULL,NULL,37,2,24,NULL,NULL,NULL,NULL,NULL,NULL,e,w,TrialProc,CM1Trails,blue,red,e,w,1,e,491,1,w,657
DualSimon,3004,1,"<?xml version=""1.0""?>\n<Clock xmlns:dt=""urn:schemas-microsoft-com:datatypes""><Description dt:dt=""string"">E-Prime Primary Realtime Clock</Description><StartTime><Timestamp dt:dt=""int"">0</Timestamp><DateUtc dt:dt=""string"">2017-10-10T17:29:47Z</DateUtc></StartTime><FrequencyChanges><FrequencyChange><Frequency dt:dt=""r8"">2923154</Frequency><Timestamp dt:dt=""r8"">323171865543</Timestamp><Current dt:dt=""r8"">0</Current><DateUtc dt:dt=""string"">2017-10-10T17:29:47Z</DateUtc></FrequencyChange></FrequencyChanges></Clock>\n",DualSimon-003004-1,59.955,59.955,1.0.0.509,1,1049902461,Professional,2.0.10.353,2.0.10.353,10/10/2017,10/10/2017 17:29,18:29:48,2.0.10.248,1,1,1,1,CM1,List1,3,NULL,NULL,NULL,3,1,3,b1,BlockList4,25,NULL,NULL,NULL,72,2,25,NULL,NULL,NULL,NULL,NULL,NULL,w,w,TrialProc,CM1Trails,red,red,e,e,1,w,473,1,w,451
DualSimon,3004,1,"<?xml version=""1.0""?>\n<Clock xmlns:dt=""urn:schemas-microsoft-com:datatypes""><Description dt:dt=""string"">E-Prime Primary Realtime Clock</Description><StartTime><Timestamp dt:dt=""int"">0</Timestamp><DateUtc dt:dt=""string"">2017-10-10T17:29:47Z</DateUtc></StartTime><FrequencyChanges><FrequencyChange><Frequency dt:dt=""r8"">2923154</Frequency><Timestamp dt:dt=""r8"">323171865543</Timestamp><Current dt:dt=""r8"">0</Current><DateUtc dt:dt=""string"">2017-10-10T17:29:47Z</DateUtc></FrequencyChange></FrequencyChanges></Clock>\n",DualSimon-003004-1,59.955,59.955,1.0.0.509,1,1049902461,Professional,2.0.10.353,2.0.10.353,10/10/2017,10/10/2017 17:29,18:29:48,2.0.10.248,1,1,1,1,CM1,List1,3,NULL,NULL,NULL,3,1,3,b1,BlockList4,26,NULL,NULL,NULL,27,2,26,NULL,NULL,NULL,NULL,NULL,NULL,w,w,TrialProc,CM1Trails,red,red,w,w,1,w,522,1,w,367
DualSimon,3004,1,"<?xml version=""1.0""?>\n<Clock xmlns:dt=""urn:schemas-microsoft-com:datatypes""><Description dt:dt=""string"">E-Prime Primary Realtime Clock</Description><StartTime><Timestamp dt:dt=""int"">0</Timestamp><DateUtc dt:dt=""string"">2017-10-10T17:29:47Z</DateUtc></StartTime><FrequencyChanges><FrequencyChange><Frequency dt:dt=""r8"">2923154</Frequency><Timestamp dt:dt=""r8"">323171865543</Timestamp><Current dt:dt=""r8"">0</Current><DateUtc dt:dt=""string"">2017-10-10T17:29:47Z</DateUtc></FrequencyChange></FrequencyChanges></Clock>\n",DualSimon-003004-1,59.955,59.955,1.0.0.509,1,1049902461,Professional,2.0.10.353,2.0.10.353,10/10/2017,10/10/2017 17:29,18:29:48,2.0.10.248,1,1,1,1,CM1,List1,3,NULL,NULL,NULL,3,1,3,b1,BlockList4,27,NULL,NULL,NULL,95,2,27,NULL,NULL,NULL,NULL,NULL,NULL,w,e,TrialProc,CM1Trails,red,blue,e,w,1,w,363,1,e,382
DualSimon,3004,1,"<?xml version=""1.0""?>\n<Clock xmlns:dt=""urn:schemas-microsoft-com:datatypes""><Description dt:dt=""string"">E-Prime Primary Realtime Clock</Description><StartTime><Timestamp dt:dt=""int"">0</Timestamp><DateUtc dt:dt=""string"">2017-10-10T17:29:47Z</DateUtc></StartTime><FrequencyChanges><FrequencyChange><Frequency dt:dt=""r8"">2923154</Frequency><Timestamp dt:dt=""r8"">323171865543</Timestamp><Current dt:dt=""r8"">0</Current><DateUtc dt:dt=""string"">2017-10-10T17:29:47Z</DateUtc></FrequencyChange></FrequencyChanges></Clock>\n",DualSimon-003004-1,59.955,59.955,1.0.0.509,1,1049902461,Professional,2.0.10.353,2.0.10.353,10/10/2017,10/10/2017 17:29,18:29:48,2.0.10.248,1,1,1,1,CM1,List1,3,NULL,NULL,NULL,3,1,3,b1,BlockList4,28,NULL,NULL,NULL,87,2,28,NULL,NULL,NULL,NULL,NULL,NULL,w,e,TrialProc,CM1Trails,red,blue,e,w,1,w,411,1,e,408
DualSimon,3004,1,"<?xml version=""1.0""?>\n<Clock xmlns:dt=""urn:schemas-microsoft-com:datatypes""><Description dt:dt=""string"">E-Prime Primary Realtime Clock</Description><StartTime><Timestamp dt:dt=""int"">0</Timestamp><DateUtc dt:dt=""string"">2017-10-10T17:29:47Z</DateUtc></StartTime><FrequencyChanges><FrequencyChange><Frequency dt:dt=""r8"">2923154</Frequency><Timestamp dt:dt=""r8"">323171865543</Timestamp><Current dt:dt=""r8"">0</Current><DateUtc dt:dt=""string"">2017-10-10T17:29:47Z</DateUtc></FrequencyChange></FrequencyChanges></Clock>\n",DualSimon-003004-1,59.955,59.955,1.0.0.509,1,1049902461,Professional,2.0.10.353,2.0.10.353,10/10/2017,10/10/2017 17:29,18:29:48,2.0.10.248,1,1,1,1,CM1,List1,3,NULL,NULL,NULL,3,1,3,b1,BlockList4,29,NULL,NULL,NULL,74,2,29,NULL,NULL,NULL,NULL,NULL,NULL,w,w,TrialProc,CM1Trails,red,red,e,e,1,w,289,1,w,338
DualSimon,3004,1,"<?xml version=""1.0""?>\n<Clock xmlns:dt=""urn:schemas-microsoft-com:datatypes""><Description dt:dt=""string"">E-Prime Primary Realtime Clock</Description><StartTime><Timestamp dt:dt=""int"">0</Timestamp><DateUtc dt:dt=""string"">2017-10-10T17:29:47Z</DateUtc></StartTime><FrequencyChanges><FrequencyChange><Frequency dt:dt=""r8"">2923154</Frequency><Timestamp dt:dt=""r8"">323171865543</Timestamp><Current dt:dt=""r8"">0</Current><DateUtc dt:dt=""string"">2017-10-10T17:29:47Z</DateUtc></FrequencyChange></FrequencyChanges></Clock>\n",DualSimon-003004-1,59.955,59.955,1.0.0.509,1,1049902461,Professional,2.0.10.353,2.0.10.353,10/10/2017,10/10/2017 17:29,18:29:48,2.0.10.248,1,1,1,1,CM1,List1,3,NULL,NULL,NULL,3,1,3,b1,BlockList4,30,NULL,NULL,NULL,52,2,30,NULL,NULL,NULL,NULL,NULL,NULL,w,e,TrialProc,CM1Trails,red,blue,w,e,1,w,377,1,e,549
DualSimon,3004,1,"<?xml version=""1.0""?>\n<Clock xmlns:dt=""urn:schemas-microsoft-com:datatypes""><Description dt:dt=""string"">E-Prime Primary Realtime Clock</Description><StartTime><Timestamp dt:dt=""int"">0</Timestamp><DateUtc dt:dt=""string"">2017-10-10T17:29:47Z</DateUtc></StartTime><FrequencyChanges><FrequencyChange><Frequency dt:dt=""r8"">2923154</Frequency><Timestamp dt:dt=""r8"">323171865543</Timestamp><Current dt:dt=""r8"">0</Current><DateUtc dt:dt=""string"">2017-10-10T17:29:47Z</DateUtc></FrequencyChange></FrequencyChanges></Clock>\n",DualSimon-003004-1,59.955,59.955,1.0.0.509,1,1049902461,Professional,2.0.10.353,2.0.10.353,10/10/2017,10/10/2017 17:29,18:29:48,2.0.10.248,1,1,1,1,CM1,List1,3,NULL,NULL,NULL,3,1,3,b1,BlockList4,31,NULL,NULL,NULL,82,2,31,NULL,NULL,NULL,NULL,NULL,NULL,e,w,TrialProc,CM1Trails,blue,red,w,e,1,e,382,1,w,381
DualSimon,3004,1,"<?xml version=""1.0""?>\n<Clock xmlns:dt=""urn:schemas-microsoft-com:datatypes""><Description dt:dt=""string"">E-Prime Primary Realtime Clock</Description><StartTime><Timestamp dt:dt=""int"">0</Timestamp><DateUtc dt:dt=""string"">2017-10-10T17:29:47Z</DateUtc></StartTime><FrequencyChanges><FrequencyChange><Frequency dt:dt=""r8"">2923154</Frequency><Timestamp dt:dt=""r8"">323171865543</Timestamp><Current dt:dt=""r8"">0</Current><DateUtc dt:dt=""string"">2017-10-10T17:29:47Z</DateUtc></FrequencyChange></FrequencyChanges></Clock>\n",DualSimon-003004-1,59.955,59.955,1.0.0.509,1,1049902461,Professional,2.0.10.353,2.0.10.353,10/10/2017,10/10/2017 17:29,18:29:48,2.0.10.248,1,1,1,1,CM1,List1,3,NULL,NULL,NULL,3,1,3,b1,BlockList4,32,NULL,NULL,NULL,94,2,32,NULL,NULL,NULL,NULL,NULL,NULL,w,e,TrialProc,CM1Trails,red,blue,e,w,1,w,493,1,e,379
DualSimon,3004,1,"<?xml version=""1.0""?>\n<Clock xmlns:dt=""urn:schemas-microsoft-com:datatypes""><Description dt:dt=""string"">E-Prime Primary Realtime Clock</Description><StartTime><Timestamp dt:dt=""int"">0</Timestamp><DateUtc dt:dt=""string"">2017-10-10T17:29:47Z</DateUtc></StartTime><FrequencyChanges><FrequencyChange><Frequency dt:dt=""r8"">2923154</Frequency><Timestamp dt:dt=""r8"">323171865543</Timestamp><Current dt:dt=""r8"">0</Current><DateUtc dt:dt=""string"">2017-10-10T17:29:47Z</DateUtc></FrequencyChange></FrequencyChanges></Clock>\n",DualSimon-003004-1,59.955,59.955,1.0.0.509,1,1049902461,Professional,2.0.10.353,2.0.10.353,10/10/2017,10/10/2017 17:29,18:29:48,2.0.10.248,1,1,1,1,CM1,List1,3,NULL,NULL,NULL,3,1,3,b1,BlockList4,33,NULL,NULL,NULL,51,2,33,NULL,NULL,NULL,NULL,NULL,NULL,w,e,TrialProc,CM1Trails,red,blue,w,e,1,w,356,1,e,380
DualSimon,3004,1,"<?xml version=""1.0""?>\n<Clock xmlns:dt=""urn:schemas-microsoft-com:datatypes""><Description dt:dt=""string"">E-Prime Primary Realtime Clock</Description><StartTime><Timestamp dt:dt=""int"">0</Timestamp><DateUtc dt:dt=""string"">2017-10-10T17:29:47Z</DateUtc></StartTime><FrequencyChanges><FrequencyChange><Frequency dt:dt=""r8"">2923154</Frequency><Timestamp dt:dt=""r8"">323171865543</Timestamp><Current dt:dt=""r8"">0</Current><DateUtc dt:dt=""string"">2017-10-10T17:29:47Z</DateUtc></FrequencyChange></FrequencyChanges></Clock>\n",DualSimon-003004-1,59.955,59.955,1.0.0.509,1,1049902461,Professional,2.0.10.353,2.0.10.353,10/10/2017,10/10/2017 17:29,18:29:48,2.0.10.248,1,1,1,1,CM1,List1,3,NULL,NULL,NULL,3,1,3,b1,BlockList4,34,NULL,NULL,NULL,61,2,34,NULL,NULL,NULL,NULL,NULL,NULL,e,e,TrialProc,CM1Trails,blue,blue,w,w,1,e,387,1,e,560
DualSimon,3004,1,"<?xml version=""1.0""?>\n<Clock xmlns:dt=""urn:schemas-microsoft-com:datatypes""><Description dt:dt=""string"">E-Prime Primary Realtime Clock</Description><StartTime><Timestamp dt:dt=""int"">0</Timestamp><DateUtc dt:dt=""string"">2017-10-10T17:29:47Z</DateUtc></StartTime><FrequencyChanges><FrequencyChange><Frequency dt:dt=""r8"">2923154</Frequency><Timestamp dt:dt=""r8"">323171865543</Timestamp><Current dt:dt=""r8"">0</Current><DateUtc dt:dt=""string"">2017-10-10T17:29:47Z</DateUtc></FrequencyChange></FrequencyChanges></Clock>\n",DualSimon-003004-1,59.955,59.955,1.0.0.509,1,1049902461,Professional,2.0.10.353,2.0.10.353,10/10/2017,10/10/2017 17:29,18:29:48,2.0.10.248,1,1,1,1,CM1,List1,3,NULL,NULL,NULL,3,1,3,b1,BlockList4,35,NULL,NULL,NULL,3,2,35,NULL,NULL,NULL,NULL,NULL,NULL,e,w,TrialProc,CM1Trails,blue,red,e,w,1,e,504,1,w,388
DualSimon,3004,1,"<?xml version=""1.0""?>\n<Clock xmlns:dt=""urn:schemas-microsoft-com:datatypes""><Description dt:dt=""string"">E-Prime Primary Realtime Clock</Description><StartTime><Timestamp dt:dt=""int"">0</Timestamp><DateUtc dt:dt=""string"">2017-10-10T17:29:47Z</DateUtc></StartTime><FrequencyChanges><FrequencyChange><Frequency dt:dt=""r8"">2923154</Frequency><Timestamp dt:dt=""r8"">323171865543</Timestamp><Current dt:dt=""r8"">0</Current><DateUtc dt:dt=""string"">2017-10-10T17:29:47Z</DateUtc></FrequencyChange></FrequencyChanges></Clock>\n",DualSimon-003004-1,59.955,59.955,1.0.0.509,1,1049902461,Professional,2.0.10.353,2.0.10.353,10/10/2017,10/10/2017 17:29,18:29:48,2.0.10.248,1,1,1,1,CM1,List1,3,NULL,NULL,NULL,3,1,3,b1,BlockList4,36,NULL,NULL,NULL,83,2,36,NULL,NULL,NULL,NULL,NULL,NULL,e,w,TrialProc,CM1Trails,blue,red,w,e,1,e,404,1,w,435
DualSimon,3004,1,"<?xml version=""1.0""?>\n<Clock xmlns:dt=""urn:schemas-microsoft-com:datatypes""><Description dt:dt=""string"">E-Prime Primary Realtime Clock</Description><StartTime><Timestamp dt:dt=""int"">0</Timestamp><DateUtc dt:dt=""string"">2017-10-10T17:29:47Z</DateUtc></StartTime><FrequencyChanges><FrequencyChange><Frequency dt:dt=""r8"">2923154</Frequency><Timestamp dt:dt=""r8"">323171865543</Timestamp><Current dt:dt=""r8"">0</Current><DateUtc dt:dt=""string"">2017-10-10T17:29:47Z</DateUtc></FrequencyChange></FrequencyChanges></Clock>\n",DualSimon-003004-1,59.955,59.955,1.0.0.509,1,1049902461,Professional,2.0.10.353,2.0.10.353,10/10/2017,10/10/2017 17:29,18:29:48,2.0.10.248,1,1,1,1,CM1,List1,3,NULL,NULL,NULL,3,1,3,b1,BlockList4,37,NULL,NULL,NULL,28,2,37,NULL,NULL,NULL,NULL,NULL,NULL,w,w,TrialProc,CM1Trails,red,red,w,w,1,w,432,1,w,455
DualSimon,3004,1,"<?xml version=""1.0""?>\n<Clock xmlns:dt=""urn:schemas-microsoft-com:datatypes""><Description dt:dt=""string"">E-Prime Primary Realtime Clock</Description><StartTime><Timestamp dt:dt=""int"">0</Timestamp><DateUtc dt:dt=""string"">2017-10-10T17:29:47Z</DateUtc></StartTime><FrequencyChanges><FrequencyChange><Frequency dt:dt=""r8"">2923154</Frequency><Timestamp dt:dt=""r8"">323171865543</Timestamp><Current dt:dt=""r8"">0</Current><DateUtc dt:dt=""string"">2017-10-10T17:29:47Z</DateUtc></FrequencyChange></FrequencyChanges></Clock>\n",DualSimon-003004-1,59.955,59.955,1.0.0.509,1,1049902461,Professional,2.0.10.353,2.0.10.353,10/10/2017,10/10/2017 17:29,18:29:48,2.0.10.248,1,1,1,1,CM1,List1,3,NULL,NULL,NULL,3,1,3,b1,BlockList4,38,NULL,NULL,NULL,60,2,38,NULL,NULL,NULL,NULL,NULL,NULL,e,e,TrialProc,CM1Trails,blue,blue,w,w,1,e,367,1,e,359
DualSimon,3004,1,"<?xml version=""1.0""?>\n<Clock xmlns:dt=""urn:schemas-microsoft-com:datatypes""><Description dt:dt=""string"">E-Prime Primary Realtime Clock</Description><StartTime><Timestamp dt:dt=""int"">0</Timestamp><DateUtc dt:dt=""string"">2017-10-10T17:29:47Z</DateUtc></StartTime><FrequencyChanges><FrequencyChange><Frequency dt:dt=""r8"">2923154</Frequency><Timestamp dt:dt=""r8"">323171865543</Timestamp><Current dt:dt=""r8"">0</Current><DateUtc dt:dt=""string"">2017-10-10T17:29:47Z</DateUtc></FrequencyChange></FrequencyChanges></Clock>\n",DualSimon-003004-1,59.955,59.955,1.0.0.509,1,1049902461,Professional,2.0.10.353,2.0.10.353,10/10/2017,10/10/2017 17:29,18:29:48,2.0.10.248,1,1,1,1,CM1,List1,3,NULL,NULL,NULL,3,1,3,b1,BlockList4,39,NULL,NULL,NULL,85,2,39,NULL,NULL,NULL,NULL,NULL,NULL,e,w,TrialProc,CM1Trails,blue,red,w,e,1,e,486,1,w,577
DualSimon,3004,1,"<?xml version=""1.0""?>\n<Clock xmlns:dt=""urn:schemas-microsoft-com:datatypes""><Description dt:dt=""string"">E-Prime Primary Realtime Clock</Description><StartTime><Timestamp dt:dt=""int"">0</Timestamp><DateUtc dt:dt=""string"">2017-10-10T17:29:47Z</DateUtc></StartTime><FrequencyChanges><FrequencyChange><Frequency dt:dt=""r8"">2923154</Frequency><Timestamp dt:dt=""r8"">323171865543</Timestamp><Current dt:dt=""r8"">0</Current><DateUtc dt:dt=""string"">2017-10-10T17:29:47Z</DateUtc></FrequencyChange></FrequencyChanges></Clock>\n",DualSimon-003004-1,59.955,59.955,1.0.0.509,1,1049902461,Professional,2.0.10.353,2.0.10.353,10/10/2017,10/10/2017 17:29,18:29:48,2.0.10.248,1,1,1,1,CM1,List1,3,NULL,NULL,NULL,3,1,3,b1,BlockList4,40,NULL,NULL,NULL,18,2,40,NULL,NULL,NULL,NULL,NULL,NULL,e,e,TrialProc,CM1Trails,blue,blue,e,e,1,e,429,1,e,530
DualSimon,3004,1,"<?xml version=""1.0""?>\n<Clock xmlns:dt=""urn:schemas-microsoft-com:datatypes""><Description dt:dt=""string"">E-Prime Primary Realtime Clock</Description><StartTime><Timestamp dt:dt=""int"">0</Timestamp><DateUtc dt:dt=""string"">2017-10-10T17:29:47Z</DateUtc></StartTime><FrequencyChanges><FrequencyChange><Frequency dt:dt=""r8"">2923154</Frequency><Timestamp dt:dt=""r8"">323171865543</Timestamp><Current dt:dt=""r8"">0</Current><DateUtc dt:dt=""string"">2017-10-10T17:29:47Z</DateUtc></FrequencyChange></FrequencyChanges></Clock>\n",DualSimon-003004-1,59.955,59.955,1.0.0.509,1,1049902461,Professional,2.0.10.353,2.0.10.353,10/10/2017,10/10/2017 17:29,18:29:48,2.0.10.248,1,1,1,1,CM1,List1,3,NULL,NULL,NULL,3,1,3,b1,BlockList4,41,NULL,NULL,NULL,75,2,41,NULL,NULL,NULL,NULL,NULL,NULL,e,w,TrialProc,CM1Trails,blue,red,w,e,1,e,373,1,w,392
DualSimon,3004,1,"<?xml version=""1.0""?>\n<Clock xmlns:dt=""urn:schemas-microsoft-com:datatypes""><Description dt:dt=""string"">E-Prime Primary Realtime Clock</Description><StartTime><Timestamp dt:dt=""int"">0</Timestamp><DateUtc dt:dt=""string"">2017-10-10T17:29:47Z</DateUtc></StartTime><FrequencyChanges><FrequencyChange><Frequency dt:dt=""r8"">2923154</Frequency><Timestamp dt:dt=""r8"">323171865543</Timestamp><Current dt:dt=""r8"">0</Current><DateUtc dt:dt=""string"">2017-10-10T17:29:47Z</DateUtc></FrequencyChange></FrequencyChanges></Clock>\n",DualSimon-003004-1,59.955,59.955,1.0.0.509,1,1049902461,Professional,2.0.10.353,2.0.10.353,10/10/2017,10/10/2017 17:29,18:29:48,2.0.10.248,1,1,1,1,CM1,List1,3,NULL,NULL,NULL,3,1,3,b1,BlockList4,42,NULL,NULL,NULL,39,2,42,NULL,NULL,NULL,NULL,NULL,NULL,e,w,TrialProc,CM1Trails,blue,red,e,w,1,e,300,1,w,546
DualSimon,3004,1,"<?xml version=""1.0""?>\n<Clock xmlns:dt=""urn:schemas-microsoft-com:datatypes""><Description dt:dt=""string"">E-Prime Primary Realtime Clock</Description><StartTime><Timestamp dt:dt=""int"">0</Timestamp><DateUtc dt:dt=""string"">2017-10-10T17:29:47Z</DateUtc></StartTime><FrequencyChanges><FrequencyChange><Frequency dt:dt=""r8"">2923154</Frequency><Timestamp dt:dt=""r8"">323171865543</Timestamp><Current dt:dt=""r8"">0</Current><DateUtc dt:dt=""string"">2017-10-10T17:29:47Z</DateUtc></FrequencyChange></FrequencyChanges></Clock>\n",DualSimon-003004-1,59.955,59.955,1.0.0.509,1,1049902461,Professional,2.0.10.353,2.0.10.353,10/10/2017,10/10/2017 17:29,18:29:48,2.0.10.248,1,1,1,1,CM1,List1,3,NULL,NULL,NULL,3,1,3,b1,BlockList4,43,NULL,NULL,NULL,35,2,43,NULL,NULL,NULL,NULL,NULL,NULL,e,w,TrialProc,CM1Trails,blue,red,e,w,1,e,276,1,w,613
DualSimon,3004,1,"<?xml version=""1.0""?>\n<Clock xmlns:dt=""urn:schemas-microsoft-com:datatypes""><Description dt:dt=""string"">E-Prime Primary Realtime Clock</Description><StartTime><Timestamp dt:dt=""int"">0</Timestamp><DateUtc dt:dt=""string"">2017-10-10T17:29:47Z</DateUtc></StartTime><FrequencyChanges><FrequencyChange><Frequency dt:dt=""r8"">2923154</Frequency><Timestamp dt:dt=""r8"">323171865543</Timestamp><Current dt:dt=""r8"">0</Current><DateUtc dt:dt=""string"">2017-10-10T17:29:47Z</DateUtc></FrequencyChange></FrequencyChanges></Clock>\n",DualSimon-003004-1,59.955,59.955,1.0.0.509,1,1049902461,Professional,2.0.10.353,2.0.10.353,10/10/2017,10/10/2017 17:29,18:29:48,2.0.10.248,1,1,1,1,CM1,List1,3,NULL,NULL,NULL,3,1,3,b1,BlockList4,44,NULL,NULL,NULL,81,2,44,NULL,NULL,NULL,NULL,NULL,NULL,e,w,TrialProc,CM1Trails,blue,red,w,e,1,e,490,1,w,495
DualSimon,3004,1,"<?xml version=""1.0""?>\n<Clock xmlns:dt=""urn:schemas-microsoft-com:datatypes""><Description dt:dt=""string"">E-Prime Primary Realtime Clock</Description><StartTime><Timestamp dt:dt=""int"">0</Timestamp><DateUtc dt:dt=""string"">2017-10-10T17:29:47Z</DateUtc></StartTime><FrequencyChanges><FrequencyChange><Frequency dt:dt=""r8"">2923154</Frequency><Timestamp dt:dt=""r8"">323171865543</Timestamp><Current dt:dt=""r8"">0</Current><DateUtc dt:dt=""string"">2017-10-10T17:29:47Z</DateUtc></FrequencyChange></FrequencyChanges></Clock>\n",DualSimon-003004-1,59.955,59.955,1.0.0.509,1,1049902461,Professional,2.0.10.353,2.0.10.353,10/10/2017,10/10/2017 17:29,18:29:48,2.0.10.248,1,1,1,1,CM1,List1,3,NULL,NULL,NULL,3,1,3,b1,BlockList4,45,NULL,NULL,NULL,7,2,45,NULL,NULL,NULL,NULL,NULL,NULL,e,w,TrialProc,CM1Trails,blue,red,w,e,1,e,307,1,w,394
DualSimon,3004,1,"<?xml version=""1.0""?>\n<Clock xmlns:dt=""urn:schemas-microsoft-com:datatypes""><Description dt:dt=""string"">E-Prime Primary Realtime Clock</Description><StartTime><Timestamp dt:dt=""int"">0</Timestamp><DateUtc dt:dt=""string"">2017-10-10T17:29:47Z</DateUtc></StartTime><FrequencyChanges><FrequencyChange><Frequency dt:dt=""r8"">2923154</Frequency><Timestamp dt:dt=""r8"">323171865543</Timestamp><Current dt:dt=""r8"">0</Current><DateUtc dt:dt=""string"">2017-10-10T17:29:47Z</DateUtc></FrequencyChange></FrequencyChanges></Clock>\n",DualSimon-003004-1,59.955,59.955,1.0.0.509,1,1049902461,Professional,2.0.10.353,2.0.10.353,10/10/2017,10/10/2017 17:29,18:29:48,2.0.10.248,1,1,1,1,CM1,List1,3,NULL,NULL,NULL,3,1,3,b1,BlockList4,46,NULL,NULL,NULL,90,2,46,NULL,NULL,NULL,NULL,NULL,NULL,w,e,TrialProc,CM1Trails,red,blue,e,w,1,w,378,1,e,258
DualSimon,3004,1,"<?xml version=""1.0""?>\n<Clock xmlns:dt=""urn:schemas-microsoft-com:datatypes""><Description dt:dt=""string"">E-Prime Primary Realtime Clock</Description><StartTime><Timestamp dt:dt=""int"">0</Timestamp><DateUtc dt:dt=""string"">2017-10-10T17:29:47Z</DateUtc></StartTime><FrequencyChanges><FrequencyChange><Frequency dt:dt=""r8"">2923154</Frequency><Timestamp dt:dt=""r8"">323171865543</Timestamp><Current dt:dt=""r8"">0</Current><DateUtc dt:dt=""string"">2017-10-10T17:29:47Z</DateUtc></FrequencyChange></FrequencyChanges></Clock>\n",DualSimon-003004-1,59.955,59.955,1.0.0.509,1,1049902461,Professional,2.0.10.353,2.0.10.353,10/10/2017,10/10/2017 17:29,18:29:48,2.0.10.248,1,1,1,1,CM1,List1,3,NULL,NULL,NULL,3,1,3,b1,BlockList4,47,NULL,NULL,NULL,16,2,47,NULL,NULL,NULL,NULL,NULL,NULL,e,e,TrialProc,CM1Trails,blue,blue,e,e,1,e,7691,1,e,376
DualSimon,3004,1,"<?xml version=""1.0""?>\n<Clock xmlns:dt=""urn:schemas-microsoft-com:datatypes""><Description dt:dt=""string"">E-Prime Primary Realtime Clock</Description><StartTime><Timestamp dt:dt=""int"">0</Timestamp><DateUtc dt:dt=""string"">2017-10-10T17:29:47Z</DateUtc></StartTime><FrequencyChanges><FrequencyChange><Frequency dt:dt=""r8"">2923154</Frequency><Timestamp dt:dt=""r8"">323171865543</Timestamp><Current dt:dt=""r8"">0</Current><DateUtc dt:dt=""string"">2017-10-10T17:29:47Z</DateUtc></FrequencyChange></FrequencyChanges></Clock>\n",DualSimon-003004-1,59.955,59.955,1.0.0.509,1,1049902461,Professional,2.0.10.353,2.0.10.353,10/10/2017,10/10/2017 17:29,18:29:48,2.0.10.248,1,1,1,1,CM1,List1,3,NULL,NULL,NULL,3,1,3,b1,BlockList4,48,NULL,NULL,NULL,70,2,48,NULL,NULL,NULL,NULL,NULL,NULL,w,w,TrialProc,CM1Trails,red,red,e,e,1,w,486,1,w,697
DualSimon,3004,1,"<?xml version=""1.0""?>\n<Clock xmlns:dt=""urn:schemas-microsoft-com:datatypes""><Description dt:dt=""string"">E-Prime Primary Realtime Clock</Description><StartTime><Timestamp dt:dt=""int"">0</Timestamp><DateUtc dt:dt=""string"">2017-10-10T17:29:47Z</DateUtc></StartTime><FrequencyChanges><FrequencyChange><Frequency dt:dt=""r8"">2923154</Frequency><Timestamp dt:dt=""r8"">323171865543</Timestamp><Current dt:dt=""r8"">0</Current><DateUtc dt:dt=""string"">2017-10-10T17:29:47Z</DateUtc></FrequencyChange></FrequencyChanges></Clock>\n",DualSimon-003004-1,59.955,59.955,1.0.0.509,1,1049902461,Professional,2.0.10.353,2.0.10.353,10/10/2017,10/10/2017 17:29,18:29:48,2.0.10.248,1,1,1,1,CM1,List1,3,NULL,NULL,NULL,3,1,3,b1,BlockList4,49,NULL,NULL,NULL,80,2,49,NULL,NULL,NULL,NULL,NULL,NULL,e,w,TrialProc,CM1Trails,blue,red,w,e,1,e,465,1,w,386
DualSimon,3004,1,"<?xml version=""1.0""?>\n<Clock xmlns:dt=""urn:schemas-microsoft-com:datatypes""><Description dt:dt=""string"">E-Prime Primary Realtime Clock</Description><StartTime><Timestamp dt:dt=""int"">0</Timestamp><DateUtc dt:dt=""string"">2017-10-10T17:29:47Z</DateUtc></StartTime><FrequencyChanges><FrequencyChange><Frequency dt:dt=""r8"">2923154</Frequency><Timestamp dt:dt=""r8"">323171865543</Timestamp><Current dt:dt=""r8"">0</Current><DateUtc dt:dt=""string"">2017-10-10T17:29:47Z</DateUtc></FrequencyChange></FrequencyChanges></Clock>\n",DualSimon-003004-1,59.955,59.955,1.0.0.509,1,1049902461,Professional,2.0.10.353,2.0.10.353,10/10/2017,10/10/2017 17:29,18:29:48,2.0.10.248,1,1,1,1,CM1,List1,3,NULL,NULL,NULL,3,1,3,b1,BlockList4,50,NULL,NULL,NULL,42,2,50,NULL,NULL,NULL,NULL,NULL,NULL,w,e,TrialProc,CM1Trails,red,blue,w,e,1,w,725,1,e,1330
DualSimon,3004,1,"<?xml version=""1.0""?>\n<Clock xmlns:dt=""urn:schemas-microsoft-com:datatypes""><Description dt:dt=""string"">E-Prime Primary Realtime Clock</Description><StartTime><Timestamp dt:dt=""int"">0</Timestamp><DateUtc dt:dt=""string"">2017-10-10T17:29:47Z</DateUtc></StartTime><FrequencyChanges><FrequencyChange><Frequency dt:dt=""r8"">2923154</Frequency><Timestamp dt:dt=""r8"">323171865543</Timestamp><Current dt:dt=""r8"">0</Current><DateUtc dt:dt=""string"">2017-10-10T17:29:47Z</DateUtc></FrequencyChange></FrequencyChanges></Clock>\n",DualSimon-003004-1,59.955,59.955,1.0.0.509,1,1049902461,Professional,2.0.10.353,2.0.10.353,10/10/2017,10/10/2017 17:29,18:29:48,2.0.10.248,1,1,1,1,CM1,List1,3,NULL,NULL,NULL,3,1,3,b1,BlockList4,51,NULL,NULL,NULL,96,2,51,NULL,NULL,NULL,NULL,NULL,NULL,w,e,TrialProc,CM1Trails,red,blue,e,w,1,w,310,1,e,479
DualSimon,3004,1,"<?xml version=""1.0""?>\n<Clock xmlns:dt=""urn:schemas-microsoft-com:datatypes""><Description dt:dt=""string"">E-Prime Primary Realtime Clock</Description><StartTime><Timestamp dt:dt=""int"">0</Timestamp><DateUtc dt:dt=""string"">2017-10-10T17:29:47Z</DateUtc></StartTime><FrequencyChanges><FrequencyChange><Frequency dt:dt=""r8"">2923154</Frequency><Timestamp dt:dt=""r8"">323171865543</Timestamp><Current dt:dt=""r8"">0</Current><DateUtc dt:dt=""string"">2017-10-10T17:29:47Z</DateUtc></FrequencyChange></FrequencyChanges></Clock>\n",DualSimon-003004-1,59.955,59.955,1.0.0.509,1,1049902461,Professional,2.0.10.353,2.0.10.353,10/10/2017,10/10/2017 17:29,18:29:48,2.0.10.248,1,1,1,1,CM1,List1,3,NULL,NULL,NULL,3,1,3,b1,BlockList4,52,NULL,NULL,NULL,9,2,52,NULL,NULL,NULL,NULL,NULL,NULL,e,e,TrialProc,CM1Trails,blue,blue,e,e,1,e,493,1,e,344
DualSimon,3004,1,"<?xml version=""1.0""?>\n<Clock xmlns:dt=""urn:schemas-microsoft-com:datatypes""><Description dt:dt=""string"">E-Prime Primary Realtime Clock</Description><StartTime><Timestamp dt:dt=""int"">0</Timestamp><DateUtc dt:dt=""string"">2017-10-10T17:29:47Z</DateUtc></StartTime><FrequencyChanges><FrequencyChange><Frequency dt:dt=""r8"">2923154</Frequency><Timestamp dt:dt=""r8"">323171865543</Timestamp><Current dt:dt=""r8"">0</Current><DateUtc dt:dt=""string"">2017-10-10T17:29:47Z</DateUtc></FrequencyChange></FrequencyChanges></Clock>\n",DualSimon-003004-1,59.955,59.955,1.0.0.509,1,1049902461,Professional,2.0.10.353,2.0.10.353,10/10/2017,10/10/2017 17:29,18:29:48,2.0.10.248,1,1,1,1,CM1,List1,3,NULL,NULL,NULL,3,1,3,b1,BlockList4,53,NULL,NULL,NULL,46,2,53,NULL,NULL,NULL,NULL,NULL,NULL,w,e,TrialProc,CM1Trails,red,blue,w,e,1,w,447,1,e,418
DualSimon,3004,1,"<?xml version=""1.0""?>\n<Clock xmlns:dt=""urn:schemas-microsoft-com:datatypes""><Description dt:dt=""string"">E-Prime Primary Realtime Clock</Description><StartTime><Timestamp dt:dt=""int"">0</Timestamp><DateUtc dt:dt=""string"">2017-10-10T17:29:47Z</DateUtc></StartTime><FrequencyChanges><FrequencyChange><Frequency dt:dt=""r8"">2923154</Frequency><Timestamp dt:dt=""r8"">323171865543</Timestamp><Current dt:dt=""r8"">0</Current><DateUtc dt:dt=""string"">2017-10-10T17:29:47Z</DateUtc></FrequencyChange></FrequencyChanges></Clock>\n",DualSimon-003004-1,59.955,59.955,1.0.0.509,1,1049902461,Professional,2.0.10.353,2.0.10.353,10/10/2017,10/10/2017 17:29,18:29:48,2.0.10.248,1,1,1,1,CM1,List1,3,NULL,NULL,NULL,3,1,3,b1,BlockList4,54,NULL,NULL,NULL,62,2,54,NULL,NULL,NULL,NULL,NULL,NULL,e,e,TrialProc,CM1Trails,blue,blue,w,w,1,e,672,1,e,533
DualSimon,3004,1,"<?xml version=""1.0""?>\n<Clock xmlns:dt=""urn:schemas-microsoft-com:datatypes""><Description dt:dt=""string"">E-Prime Primary Realtime Clock</Description><StartTime><Timestamp dt:dt=""int"">0</Timestamp><DateUtc dt:dt=""string"">2017-10-10T17:29:47Z</DateUtc></StartTime><FrequencyChanges><FrequencyChange><Frequency dt:dt=""r8"">2923154</Frequency><Timestamp dt:dt=""r8"">323171865543</Timestamp><Current dt:dt=""r8"">0</Current><DateUtc dt:dt=""string"">2017-10-10T17:29:47Z</DateUtc></FrequencyChange></FrequencyChanges></Clock>\n",DualSimon-003004-1,59.955,59.955,1.0.0.509,1,1049902461,Professional,2.0.10.353,2.0.10.353,10/10/2017,10/10/2017 17:29,18:29:48,2.0.10.248,1,1,1,1,CM1,List1,3,NULL,NULL,NULL,3,1,3,b1,BlockList4,55,NULL,NULL,NULL,65,2,55,NULL,NULL,NULL,NULL,NULL,NULL,w,w,TrialProc,CM1Trails,red,red,e,e,1,w,367,1,w,465
DualSimon,3004,1,"<?xml version=""1.0""?>\n<Clock xmlns:dt=""urn:schemas-microsoft-com:datatypes""><Description dt:dt=""string"">E-Prime Primary Realtime Clock</Description><StartTime><Timestamp dt:dt=""int"">0</Timestamp><DateUtc dt:dt=""string"">2017-10-10T17:29:47Z</DateUtc></StartTime><FrequencyChanges><FrequencyChange><Frequency dt:dt=""r8"">2923154</Frequency><Timestamp dt:dt=""r8"">323171865543</Timestamp><Current dt:dt=""r8"">0</Current><DateUtc dt:dt=""string"">2017-10-10T17:29:47Z</DateUtc></FrequencyChange></FrequencyChanges></Clock>\n",DualSimon-003004-1,59.955,59.955,1.0.0.509,1,1049902461,Professional,2.0.10.353,2.0.10.353,10/10/2017,10/10/2017 17:29,18:29:48,2.0.10.248,1,1,1,1,CM1,List1,3,NULL,NULL,NULL,3,1,3,b1,BlockList4,56,NULL,NULL,NULL,49,2,56,NULL,NULL,NULL,NULL,NULL,NULL,w,e,TrialProc,CM1Trails,red,blue,w,e,1,w,345,1,e,461
DualSimon,3004,1,"<?xml version=""1.0""?>\n<Clock xmlns:dt=""urn:schemas-microsoft-com:datatypes""><Description dt:dt=""string"">E-Prime Primary Realtime Clock</Description><StartTime><Timestamp dt:dt=""int"">0</Timestamp><DateUtc dt:dt=""string"">2017-10-10T17:29:47Z</DateUtc></StartTime><FrequencyChanges><FrequencyChange><Frequency dt:dt=""r8"">2923154</Frequency><Timestamp dt:dt=""r8"">323171865543</Timestamp><Current dt:dt=""r8"">0</Current><DateUtc dt:dt=""string"">2017-10-10T17:29:47Z</DateUtc></FrequencyChange></FrequencyChanges></Clock>\n",DualSimon-003004-1,59.955,59.955,1.0.0.509,1,1049902461,Professional,2.0.10.353,2.0.10.353,10/10/2017,10/10/2017 17:29,18:29:48,2.0.10.248,1,1,1,1,CM1,List1,3,NULL,NULL,NULL,3,1,3,b1,BlockList4,57,NULL,NULL,NULL,55,2,57,NULL,NULL,NULL,NULL,NULL,NULL,e,e,TrialProc,CM1Trails,blue,blue,w,w,1,e,438,1,e,368
DualSimon,3004,1,"<?xml version=""1.0""?>\n<Clock xmlns:dt=""urn:schemas-microsoft-com:datatypes""><Description dt:dt=""string"">E-Prime Primary Realtime Clock</Description><StartTime><Timestamp dt:dt=""int"">0</Timestamp><DateUtc dt:dt=""string"">2017-10-10T17:29:47Z</DateUtc></StartTime><FrequencyChanges><FrequencyChange><Frequency dt:dt=""r8"">2923154</Frequency><Timestamp dt:dt=""r8"">323171865543</Timestamp><Current dt:dt=""r8"">0</Current><DateUtc dt:dt=""string"">2017-10-10T17:29:47Z</DateUtc></FrequencyChange></FrequencyChanges></Clock>\n",DualSimon-003004-1,59.955,59.955,1.0.0.509,1,1049902461,Professional,2.0.10.353,2.0.10.353,10/10/2017,10/10/2017 17:29,18:29:48,2.0.10.248,1,1,1,1,CM1,List1,3,NULL,NULL,NULL,3,1,3,b1,BlockList4,58,NULL,NULL,NULL,33,2,58,NULL,NULL,NULL,NULL,NULL,NULL,e,w,TrialProc,CM1Trails,blue,red,e,w,1,e,603,1,w,356
DualSimon,3004,1,"<?xml version=""1.0""?>\n<Clock xmlns:dt=""urn:schemas-microsoft-com:datatypes""><Description dt:dt=""string"">E-Prime Primary Realtime Clock</Description><StartTime><Timestamp dt:dt=""int"">0</Timestamp><DateUtc dt:dt=""string"">2017-10-10T17:29:47Z</DateUtc></StartTime><FrequencyChanges><FrequencyChange><Frequency dt:dt=""r8"">2923154</Frequency><Timestamp dt:dt=""r8"">323171865543</Timestamp><Current dt:dt=""r8"">0</Current><DateUtc dt:dt=""string"">2017-10-10T17:29:47Z</DateUtc></FrequencyChange></FrequencyChanges></Clock>\n",DualSimon-003004-1,59.955,59.955,1.0.0.509,1,1049902461,Professional,2.0.10.353,2.0.10.353,10/10/2017,10/10/2017 17:29,18:29:48,2.0.10.248,1,1,1,1,CM1,List1,3,NULL,NULL,NULL,3,1,3,b1,BlockList4,59,NULL,NULL,NULL,56,2,59,NULL,NULL,NULL,NULL,NULL,NULL,e,e,TrialProc,CM1Trails,blue,blue,w,w,1,e,328,1,e,511
DualSimon,3004,1,"<?xml version=""1.0""?>\n<Clock xmlns:dt=""urn:schemas-microsoft-com:datatypes""><Description dt:dt=""string"">E-Prime Primary Realtime Clock</Description><StartTime><Timestamp dt:dt=""int"">0</Timestamp><DateUtc dt:dt=""string"">2017-10-10T17:29:47Z</DateUtc></StartTime><FrequencyChanges><FrequencyChange><Frequency dt:dt=""r8"">2923154</Frequency><Timestamp dt:dt=""r8"">323171865543</Timestamp><Current dt:dt=""r8"">0</Current><DateUtc dt:dt=""string"">2017-10-10T17:29:47Z</DateUtc></FrequencyChange></FrequencyChanges></Clock>\n",DualSimon-003004-1,59.955,59.955,1.0.0.509,1,1049902461,Professional,2.0.10.353,2.0.10.353,10/10/2017,10/10/2017 17:29,18:29:48,2.0.10.248,1,1,1,1,CM1,List1,3,NULL,NULL,NULL,3,1,3,b1,BlockList4,60,NULL,NULL,NULL,50,2,60,NULL,NULL,NULL,NULL,NULL,NULL,w,e,TrialProc,CM1Trails,red,blue,w,e,1,w,278,1,e,469
DualSimon,3004,1,"<?xml version=""1.0""?>\n<Clock xmlns:dt=""urn:schemas-microsoft-com:datatypes""><Description dt:dt=""string"">E-Prime Primary Realtime Clock</Description><StartTime><Timestamp dt:dt=""int"">0</Timestamp><DateUtc dt:dt=""string"">2017-10-10T17:29:47Z</DateUtc></StartTime><FrequencyChanges><FrequencyChange><Frequency dt:dt=""r8"">2923154</Frequency><Timestamp dt:dt=""r8"">323171865543</Timestamp><Current dt:dt=""r8"">0</Current><DateUtc dt:dt=""string"">2017-10-10T17:29:47Z</DateUtc></FrequencyChange></FrequencyChanges></Clock>\n",DualSimon-003004-1,59.955,59.955,1.0.0.509,1,1049902461,Professional,2.0.10.353,2.0.10.353,10/10/2017,10/10/2017 17:29,18:29:48,2.0.10.248,1,1,1,1,CM1,List1,3,NULL,NULL,NULL,3,1,3,b1,BlockList4,61,NULL,NULL,NULL,44,2,61,NULL,NULL,NULL,NULL,NULL,NULL,w,e,TrialProc,CM1Trails,red,blue,w,e,1,w,292,1,e,347
DualSimon,3004,1,"<?xml version=""1.0""?>\n<Clock xmlns:dt=""urn:schemas-microsoft-com:datatypes""><Description dt:dt=""string"">E-Prime Primary Realtime Clock</Description><StartTime><Timestamp dt:dt=""int"">0</Timestamp><DateUtc dt:dt=""string"">2017-10-10T17:29:47Z</DateUtc></StartTime><FrequencyChanges><FrequencyChange><Frequency dt:dt=""r8"">2923154</Frequency><Timestamp dt:dt=""r8"">323171865543</Timestamp><Current dt:dt=""r8"">0</Current><DateUtc dt:dt=""string"">2017-10-10T17:29:47Z</DateUtc></FrequencyChange></FrequencyChanges></Clock>\n",DualSimon-003004-1,59.955,59.955,1.0.0.509,1,1049902461,Professional,2.0.10.353,2.0.10.353,10/10/2017,10/10/2017 17:29,18:29:48,2.0.10.248,1,1,1,1,CM1,List1,3,NULL,NULL,NULL,3,1,3,b1,BlockList4,62,NULL,NULL,NULL,79,2,62,NULL,NULL,NULL,NULL,NULL,NULL,e,w,TrialProc,CM1Trails,blue,red,w,e,1,e,350,1,w,429
DualSimon,3004,1,"<?xml version=""1.0""?>\n<Clock xmlns:dt=""urn:schemas-microsoft-com:datatypes""><Description dt:dt=""string"">E-Prime Primary Realtime Clock</Description><StartTime><Timestamp dt:dt=""int"">0</Timestamp><DateUtc dt:dt=""string"">2017-10-10T17:29:47Z</DateUtc></StartTime><FrequencyChanges><FrequencyChange><Frequency dt:dt=""r8"">2923154</Frequency><Timestamp dt:dt=""r8"">323171865543</Timestamp><Current dt:dt=""r8"">0</Current><DateUtc dt:dt=""string"">2017-10-10T17:29:47Z</DateUtc></FrequencyChange></FrequencyChanges></Clock>\n",DualSimon-003004-1,59.955,59.955,1.0.0.509,1,1049902461,Professional,2.0.10.353,2.0.10.353,10/10/2017,10/10/2017 17:29,18:29:48,2.0.10.248,1,1,1,1,CM1,List1,3,NULL,NULL,NULL,3,1,3,b1,BlockList4,63,NULL,NULL,NULL,43,2,63,NULL,NULL,NULL,NULL,NULL,NULL,w,e,TrialProc,CM1Trails,red,blue,w,e,1,w,358,1,e,433
DualSimon,3004,1,"<?xml version=""1.0""?>\n<Clock xmlns:dt=""urn:schemas-microsoft-com:datatypes""><Description dt:dt=""string"">E-Prime Primary Realtime Clock</Description><StartTime><Timestamp dt:dt=""int"">0</Timestamp><DateUtc dt:dt=""string"">2017-10-10T17:29:47Z</DateUtc></StartTime><FrequencyChanges><FrequencyChange><Frequency dt:dt=""r8"">2923154</Frequency><Timestamp dt:dt=""r8"">323171865543</Timestamp><Current dt:dt=""r8"">0</Current><DateUtc dt:dt=""string"">2017-10-10T17:29:47Z</DateUtc></FrequencyChange></FrequencyChanges></Clock>\n",DualSimon-003004-1,59.955,59.955,1.0.0.509,1,1049902461,Professional,2.0.10.353,2.0.10.353,10/10/2017,10/10/2017 17:29,18:29:48,2.0.10.248,1,1,1,1,CM1,List1,3,NULL,NULL,NULL,3,1,3,b1,BlockList4,64,NULL,NULL,NULL,10,2,64,NULL,NULL,NULL,NULL,NULL,NULL,e,e,TrialProc,CM1Trails,blue,blue,e,e,1,e,335,1,e,347
DualSimon,3004,1,"<?xml version=""1.0""?>\n<Clock xmlns:dt=""urn:schemas-microsoft-com:datatypes""><Description dt:dt=""string"">E-Prime Primary Realtime Clock</Description><StartTime><Timestamp dt:dt=""int"">0</Timestamp><DateUtc dt:dt=""string"">2017-10-10T17:29:47Z</DateUtc></StartTime><FrequencyChanges><FrequencyChange><Frequency dt:dt=""r8"">2923154</Frequency><Timestamp dt:dt=""r8"">323171865543</Timestamp><Current dt:dt=""r8"">0</Current><DateUtc dt:dt=""string"">2017-10-10T17:29:47Z</DateUtc></FrequencyChange></FrequencyChanges></Clock>\n",DualSimon-003004-1,59.955,59.955,1.0.0.509,1,1049902461,Professional,2.0.10.353,2.0.10.353,10/10/2017,10/10/2017 17:29,18:29:48,2.0.10.248,1,1,1,1,CM1,List1,3,NULL,NULL,NULL,3,1,3,b1,BlockList4,65,NULL,NULL,NULL,22,2,65,NULL,NULL,NULL,NULL,NULL,NULL,w,w,TrialProc,CM1Trails,red,red,w,w,1,w,404,1,w,297
DualSimon,3004,1,"<?xml version=""1.0""?>\n<Clock xmlns:dt=""urn:schemas-microsoft-com:datatypes""><Description dt:dt=""string"">E-Prime Primary Realtime Clock</Description><StartTime><Timestamp dt:dt=""int"">0</Timestamp><DateUtc dt:dt=""string"">2017-10-10T17:29:47Z</DateUtc></StartTime><FrequencyChanges><FrequencyChange><Frequency dt:dt=""r8"">2923154</Frequency><Timestamp dt:dt=""r8"">323171865543</Timestamp><Current dt:dt=""r8"">0</Current><DateUtc dt:dt=""string"">2017-10-10T17:29:47Z</DateUtc></FrequencyChange></FrequencyChanges></Clock>\n",DualSimon-003004-1,59.955,59.955,1.0.0.509,1,1049902461,Professional,2.0.10.353,2.0.10.353,10/10/2017,10/10/2017 17:29,18:29:48,2.0.10.248,1,1,1,1,CM1,List1,3,NULL,NULL,NULL,3,1,3,b1,BlockList4,66,NULL,NULL,NULL,48,2,66,NULL,NULL,NULL,NULL,NULL,NULL,w,e,TrialProc,CM1Trails,red,blue,w,e,1,w,360,1,e,354
DualSimon,3004,1,"<?xml version=""1.0""?>\n<Clock xmlns:dt=""urn:schemas-microsoft-com:datatypes""><Description dt:dt=""string"">E-Prime Primary Realtime Clock</Description><StartTime><Timestamp dt:dt=""int"">0</Timestamp><DateUtc dt:dt=""string"">2017-10-10T17:29:47Z</DateUtc></StartTime><FrequencyChanges><FrequencyChange><Frequency dt:dt=""r8"">2923154</Frequency><Timestamp dt:dt=""r8"">323171865543</Timestamp><Current dt:dt=""r8"">0</Current><DateUtc dt:dt=""string"">2017-10-10T17:29:47Z</DateUtc></FrequencyChange></FrequencyChanges></Clock>\n",DualSimon-003004-1,59.955,59.955,1.0.0.509,1,1049902461,Professional,2.0.10.353,2.0.10.353,10/10/2017,10/10/2017 17:29,18:29:48,2.0.10.248,1,1,1,1,CM1,List1,3,NULL,NULL,NULL,3,1,3,b1,BlockList4,67,NULL,NULL,NULL,69,2,67,NULL,NULL,NULL,NULL,NULL,NULL,w,w,TrialProc,CM1Trails,red,red,e,e,1,w,357,1,w,532
DualSimon,3004,1,"<?xml version=""1.0""?>\n<Clock xmlns:dt=""urn:schemas-microsoft-com:datatypes""><Description dt:dt=""string"">E-Prime Primary Realtime Clock</Description><StartTime><Timestamp dt:dt=""int"">0</Timestamp><DateUtc dt:dt=""string"">2017-10-10T17:29:47Z</DateUtc></StartTime><FrequencyChanges><FrequencyChange><Frequency dt:dt=""r8"">2923154</Frequency><Timestamp dt:dt=""r8"">323171865543</Timestamp><Current dt:dt=""r8"">0</Current><DateUtc dt:dt=""string"">2017-10-10T17:29:47Z</DateUtc></FrequencyChange></FrequencyChanges></Clock>\n",DualSimon-003004-1,59.955,59.955,1.0.0.509,1,1049902461,Professional,2.0.10.353,2.0.10.353,10/10/2017,10/10/2017 17:29,18:29:48,2.0.10.248,1,1,1,1,CM1,List1,3,NULL,NULL,NULL,3,1,3,b1,BlockList4,68,NULL,NULL,NULL,13,2,68,NULL,NULL,NULL,NULL,NULL,NULL,e,e,TrialProc,CM1Trails,blue,blue,e,e,1,e,288,1,e,463
DualSimon,3004,1,"<?xml version=""1.0""?>\n<Clock xmlns:dt=""urn:schemas-microsoft-com:datatypes""><Description dt:dt=""string"">E-Prime Primary Realtime Clock</Description><StartTime><Timestamp dt:dt=""int"">0</Timestamp><DateUtc dt:dt=""string"">2017-10-10T17:29:47Z</DateUtc></StartTime><FrequencyChanges><FrequencyChange><Frequency dt:dt=""r8"">2923154</Frequency><Timestamp dt:dt=""r8"">323171865543</Timestamp><Current dt:dt=""r8"">0</Current><DateUtc dt:dt=""string"">2017-10-10T17:29:47Z</DateUtc></FrequencyChange></FrequencyChanges></Clock>\n",DualSimon-003004-1,59.955,59.955,1.0.0.509,1,1049902461,Professional,2.0.10.353,2.0.10.353,10/10/2017,10/10/2017 17:29,18:29:48,2.0.10.248,1,1,1,1,CM1,List1,3,NULL,NULL,NULL,3,1,3,b1,BlockList4,69,NULL,NULL,NULL,45,2,69,NULL,NULL,NULL,NULL,NULL,NULL,w,e,TrialProc,CM1Trails,red,blue,w,e,1,w,496,1,e,352
DualSimon,3004,1,"<?xml version=""1.0""?>\n<Clock xmlns:dt=""urn:schemas-microsoft-com:datatypes""><Description dt:dt=""string"">E-Prime Primary Realtime Clock</Description><StartTime><Timestamp dt:dt=""int"">0</Timestamp><DateUtc dt:dt=""string"">2017-10-10T17:29:47Z</DateUtc></StartTime><FrequencyChanges><FrequencyChange><Frequency dt:dt=""r8"">2923154</Frequency><Timestamp dt:dt=""r8"">323171865543</Timestamp><Current dt:dt=""r8"">0</Current><DateUtc dt:dt=""string"">2017-10-10T17:29:47Z</DateUtc></FrequencyChange></FrequencyChanges></Clock>\n",DualSimon-003004-1,59.955,59.955,1.0.0.509,1,1049902461,Professional,2.0.10.353,2.0.10.353,10/10/2017,10/10/2017 17:29,18:29:48,2.0.10.248,1,1,1,1,CM1,List1,3,NULL,NULL,NULL,3,1,3,b1,BlockList4,70,NULL,NULL,NULL,36,2,70,NULL,NULL,NULL,NULL,NULL,NULL,e,w,TrialProc,CM1Trails,blue,red,e,w,1,e,394,1,w,266
DualSimon,3004,1,"<?xml version=""1.0""?>\n<Clock xmlns:dt=""urn:schemas-microsoft-com:datatypes""><Description dt:dt=""string"">E-Prime Primary Realtime Clock</Description><StartTime><Timestamp dt:dt=""int"">0</Timestamp><DateUtc dt:dt=""string"">2017-10-10T17:29:47Z</DateUtc></StartTime><FrequencyChanges><FrequencyChange><Frequency dt:dt=""r8"">2923154</Frequency><Timestamp dt:dt=""r8"">323171865543</Timestamp><Current dt:dt=""r8"">0</Current><DateUtc dt:dt=""string"">2017-10-10T17:29:47Z</DateUtc></FrequencyChange></FrequencyChanges></Clock>\n",DualSimon-003004-1,59.955,59.955,1.0.0.509,1,1049902461,Professional,2.0.10.353,2.0.10.353,10/10/2017,10/10/2017 17:29,18:29:48,2.0.10.248,1,1,1,1,CM1,List1,3,NULL,NULL,NULL,3,1,3,b1,BlockList4,71,NULL,NULL,NULL,59,2,71,NULL,NULL,NULL,NULL,NULL,NULL,e,e,TrialProc,CM1Trails,blue,blue,w,w,1,e,924,1,e,399
DualSimon,3004,1,"<?xml version=""1.0""?>\n<Clock xmlns:dt=""urn:schemas-microsoft-com:datatypes""><Description dt:dt=""string"">E-Prime Primary Realtime Clock</Description><StartTime><Timestamp dt:dt=""int"">0</Timestamp><DateUtc dt:dt=""string"">2017-10-10T17:29:47Z</DateUtc></StartTime><FrequencyChanges><FrequencyChange><Frequency dt:dt=""r8"">2923154</Frequency><Timestamp dt:dt=""r8"">323171865543</Timestamp><Current dt:dt=""r8"">0</Current><DateUtc dt:dt=""string"">2017-10-10T17:29:47Z</DateUtc></FrequencyChange></FrequencyChanges></Clock>\n",DualSimon-003004-1,59.955,59.955,1.0.0.509,1,1049902461,Professional,2.0.10.353,2.0.10.353,10/10/2017,10/10/2017 17:29,18:29:48,2.0.10.248,1,1,1,1,CM1,List1,3,NULL,NULL,NULL,3,1,3,b1,BlockList4,72,NULL,NULL,NULL,66,2,72,NULL,NULL,NULL,NULL,NULL,NULL,w,w,TrialProc,CM1Trails,red,red,e,e,1,w,482,1,w,312
DualSimon,3004,1,"<?xml version=""1.0""?>\n<Clock xmlns:dt=""urn:schemas-microsoft-com:datatypes""><Description dt:dt=""string"">E-Prime Primary Realtime Clock</Description><StartTime><Timestamp dt:dt=""int"">0</Timestamp><DateUtc dt:dt=""string"">2017-10-10T17:29:47Z</DateUtc></StartTime><FrequencyChanges><FrequencyChange><Frequency dt:dt=""r8"">2923154</Frequency><Timestamp dt:dt=""r8"">323171865543</Timestamp><Current dt:dt=""r8"">0</Current><DateUtc dt:dt=""string"">2017-10-10T17:29:47Z</DateUtc></FrequencyChange></FrequencyChanges></Clock>\n",DualSimon-003004-1,59.955,59.955,1.0.0.509,1,1049902461,Professional,2.0.10.353,2.0.10.353,10/10/2017,10/10/2017 17:29,18:29:48,2.0.10.248,1,1,1,1,CM1,List1,3,NULL,NULL,NULL,3,1,3,b1,BlockList4,73,NULL,NULL,NULL,30,2,73,NULL,NULL,NULL,NULL,NULL,NULL,w,w,TrialProc,CM1Trails,red,red,w,w,1,w,368,1,w,371
DualSimon,3004,1,"<?xml version=""1.0""?>\n<Clock xmlns:dt=""urn:schemas-microsoft-com:datatypes""><Description dt:dt=""string"">E-Prime Primary Realtime Clock</Description><StartTime><Timestamp dt:dt=""int"">0</Timestamp><DateUtc dt:dt=""string"">2017-10-10T17:29:47Z</DateUtc></StartTime><FrequencyChanges><FrequencyChange><Frequency dt:dt=""r8"">2923154</Frequency><Timestamp dt:dt=""r8"">323171865543</Timestamp><Current dt:dt=""r8"">0</Current><DateUtc dt:dt=""string"">2017-10-10T17:29:47Z</DateUtc></FrequencyChange></FrequencyChanges></Clock>\n",DualSimon-003004-1,59.955,59.955,1.0.0.509,1,1049902461,Professional,2.0.10.353,2.0.10.353,10/10/2017,10/10/2017 17:29,18:29:48,2.0.10.248,1,1,1,1,CM1,List1,3,NULL,NULL,NULL,3,1,3,b1,BlockList4,74,NULL,NULL,NULL,91,2,74,NULL,NULL,NULL,NULL,NULL,NULL,w,e,TrialProc,CM1Trails,red,blue,e,w,1,w,328,1,e,529
DualSimon,3004,1,"<?xml version=""1.0""?>\n<Clock xmlns:dt=""urn:schemas-microsoft-com:datatypes""><Description dt:dt=""string"">E-Prime Primary Realtime Clock</Description><StartTime><Timestamp dt:dt=""int"">0</Timestamp><DateUtc dt:dt=""string"">2017-10-10T17:29:47Z</DateUtc></StartTime><FrequencyChanges><FrequencyChange><Frequency dt:dt=""r8"">2923154</Frequency><Timestamp dt:dt=""r8"">323171865543</Timestamp><Current dt:dt=""r8"">0</Current><DateUtc dt:dt=""string"">2017-10-10T17:29:47Z</DateUtc></FrequencyChange></FrequencyChanges></Clock>\n",DualSimon-003004-1,59.955,59.955,1.0.0.509,1,1049902461,Professional,2.0.10.353,2.0.10.353,10/10/2017,10/10/2017 17:29,18:29:48,2.0.10.248,1,1,1,1,CM1,List1,3,NULL,NULL,NULL,3,1,3,b1,BlockList4,75,NULL,NULL,NULL,32,2,75,NULL,NULL,NULL,NULL,NULL,NULL,e,w,TrialProc,CM1Trails,blue,red,e,w,1,e,427,1,w,423
DualSimon,3004,1,"<?xml version=""1.0""?>\n<Clock xmlns:dt=""urn:schemas-microsoft-com:datatypes""><Description dt:dt=""string"">E-Prime Primary Realtime Clock</Description><StartTime><Timestamp dt:dt=""int"">0</Timestamp><DateUtc dt:dt=""string"">2017-10-10T17:29:47Z</DateUtc></StartTime><FrequencyChanges><FrequencyChange><Frequency dt:dt=""r8"">2923154</Frequency><Timestamp dt:dt=""r8"">323171865543</Timestamp><Current dt:dt=""r8"">0</Current><DateUtc dt:dt=""string"">2017-10-10T17:29:47Z</DateUtc></FrequencyChange></FrequencyChanges></Clock>\n",DualSimon-003004-1,59.955,59.955,1.0.0.509,1,1049902461,Professional,2.0.10.353,2.0.10.353,10/10/2017,10/10/2017 17:29,18:29:48,2.0.10.248,1,1,1,1,CM1,List1,3,NULL,NULL,NULL,3,1,3,b1,BlockList4,76,NULL,NULL,NULL,41,2,76,NULL,NULL,NULL,NULL,NULL,NULL,e,w,TrialProc,CM1Trails,blue,red,e,w,1,e,316,1,w,701
DualSimon,3004,1,"<?xml version=""1.0""?>\n<Clock xmlns:dt=""urn:schemas-microsoft-com:datatypes""><Description dt:dt=""string"">E-Prime Primary Realtime Clock</Description><StartTime><Timestamp dt:dt=""int"">0</Timestamp><DateUtc dt:dt=""string"">2017-10-10T17:29:47Z</DateUtc></StartTime><FrequencyChanges><FrequencyChange><Frequency dt:dt=""r8"">2923154</Frequency><Timestamp dt:dt=""r8"">323171865543</Timestamp><Current dt:dt=""r8"">0</Current><DateUtc dt:dt=""string"">2017-10-10T17:29:47Z</DateUtc></FrequencyChange></FrequencyChanges></Clock>\n",DualSimon-003004-1,59.955,59.955,1.0.0.509,1,1049902461,Professional,2.0.10.353,2.0.10.353,10/10/2017,10/10/2017 17:29,18:29:48,2.0.10.248,1,1,1,1,CM1,List1,3,NULL,NULL,NULL,3,1,3,b1,BlockList4,77,NULL,NULL,NULL,57,2,77,NULL,NULL,NULL,NULL,NULL,NULL,e,e,TrialProc,CM1Trails,blue,blue,w,w,1,e,352,1,e,349
DualSimon,3004,1,"<?xml version=""1.0""?>\n<Clock xmlns:dt=""urn:schemas-microsoft-com:datatypes""><Description dt:dt=""string"">E-Prime Primary Realtime Clock</Description><StartTime><Timestamp dt:dt=""int"">0</Timestamp><DateUtc dt:dt=""string"">2017-10-10T17:29:47Z</DateUtc></StartTime><FrequencyChanges><FrequencyChange><Frequency dt:dt=""r8"">2923154</Frequency><Timestamp dt:dt=""r8"">323171865543</Timestamp><Current dt:dt=""r8"">0</Current><DateUtc dt:dt=""string"">2017-10-10T17:29:47Z</DateUtc></FrequencyChange></FrequencyChanges></Clock>\n",DualSimon-003004-1,59.955,59.955,1.0.0.509,1,1049902461,Professional,2.0.10.353,2.0.10.353,10/10/2017,10/10/2017 17:29,18:29:48,2.0.10.248,1,1,1,1,CM1,List1,3,NULL,NULL,NULL,3,1,3,b1,BlockList4,78,NULL,NULL,NULL,78,2,78,NULL,NULL,NULL,NULL,NULL,NULL,e,w,TrialProc,CM1Trails,blue,red,w,e,1,e,313,1,w,502
DualSimon,3004,1,"<?xml version=""1.0""?>\n<Clock xmlns:dt=""urn:schemas-microsoft-com:datatypes""><Description dt:dt=""string"">E-Prime Primary Realtime Clock</Description><StartTime><Timestamp dt:dt=""int"">0</Timestamp><DateUtc dt:dt=""string"">2017-10-10T17:29:47Z</DateUtc></StartTime><FrequencyChanges><FrequencyChange><Frequency dt:dt=""r8"">2923154</Frequency><Timestamp dt:dt=""r8"">323171865543</Timestamp><Current dt:dt=""r8"">0</Current><DateUtc dt:dt=""string"">2017-10-10T17:29:47Z</DateUtc></FrequencyChange></FrequencyChanges></Clock>\n",DualSimon-003004-1,59.955,59.955,1.0.0.509,1,1049902461,Professional,2.0.10.353,2.0.10.353,10/10/2017,10/10/2017 17:29,18:29:48,2.0.10.248,1,1,1,1,CM1,List1,3,NULL,NULL,NULL,3,1,3,b1,BlockList4,79,NULL,NULL,NULL,6,2,79,NULL,NULL,NULL,NULL,NULL,NULL,w,w,TrialProc,CM1Trails,red,red,e,e,1,w,477,1,w,376
DualSimon,3004,1,"<?xml version=""1.0""?>\n<Clock xmlns:dt=""urn:schemas-microsoft-com:datatypes""><Description dt:dt=""string"">E-Prime Primary Realtime Clock</Description><StartTime><Timestamp dt:dt=""int"">0</Timestamp><DateUtc dt:dt=""string"">2017-10-10T17:29:47Z</DateUtc></StartTime><FrequencyChanges><FrequencyChange><Frequency dt:dt=""r8"">2923154</Frequency><Timestamp dt:dt=""r8"">323171865543</Timestamp><Current dt:dt=""r8"">0</Current><DateUtc dt:dt=""string"">2017-10-10T17:29:47Z</DateUtc></FrequencyChange></FrequencyChanges></Clock>\n",DualSimon-003004-1,59.955,59.955,1.0.0.509,1,1049902461,Professional,2.0.10.353,2.0.10.353,10/10/2017,10/10/2017 17:29,18:29:48,2.0.10.248,1,1,1,1,CM1,List1,3,NULL,NULL,NULL,3,1,3,b1,BlockList4,80,NULL,NULL,NULL,19,2,80,NULL,NULL,NULL,NULL,NULL,NULL,e,e,TrialProc,CM1Trails,blue,blue,e,e,1,e,565,1,e,567
DualSimon,3004,1,"<?xml version=""1.0""?>\n<Clock xmlns:dt=""urn:schemas-microsoft-com:datatypes""><Description dt:dt=""string"">E-Prime Primary Realtime Clock</Description><StartTime><Timestamp dt:dt=""int"">0</Timestamp><DateUtc dt:dt=""string"">2017-10-10T17:29:47Z</DateUtc></StartTime><FrequencyChanges><FrequencyChange><Frequency dt:dt=""r8"">2923154</Frequency><Timestamp dt:dt=""r8"">323171865543</Timestamp><Current dt:dt=""r8"">0</Current><DateUtc dt:dt=""string"">2017-10-10T17:29:47Z</DateUtc></FrequencyChange></FrequencyChanges></Clock>\n",DualSimon-003004-1,59.955,59.955,1.0.0.509,1,1049902461,Professional,2.0.10.353,2.0.10.353,10/10/2017,10/10/2017 17:29,18:29:48,2.0.10.248,1,1,1,1,CM1,List1,3,NULL,NULL,NULL,3,1,3,b1,BlockList4,81,NULL,NULL,NULL,12,2,81,NULL,NULL,NULL,NULL,NULL,NULL,e,e,TrialProc,CM1Trails,blue,blue,e,e,1,e,488,1,e,335
DualSimon,3004,1,"<?xml version=""1.0""?>\n<Clock xmlns:dt=""urn:schemas-microsoft-com:datatypes""><Description dt:dt=""string"">E-Prime Primary Realtime Clock</Description><StartTime><Timestamp dt:dt=""int"">0</Timestamp><DateUtc dt:dt=""string"">2017-10-10T17:29:47Z</DateUtc></StartTime><FrequencyChanges><FrequencyChange><Frequency dt:dt=""r8"">2923154</Frequency><Timestamp dt:dt=""r8"">323171865543</Timestamp><Current dt:dt=""r8"">0</Current><DateUtc dt:dt=""string"">2017-10-10T17:29:47Z</DateUtc></FrequencyChange></FrequencyChanges></Clock>\n",DualSimon-003004-1,59.955,59.955,1.0.0.509,1,1049902461,Professional,2.0.10.353,2.0.10.353,10/10/2017,10/10/2017 17:29,18:29:48,2.0.10.248,1,1,1,1,CM1,List1,3,NULL,NULL,NULL,3,1,3,b1,BlockList4,82,NULL,NULL,NULL,86,2,82,NULL,NULL,NULL,NULL,NULL,NULL,w,e,TrialProc,CM1Trails,red,blue,e,w,1,w,342,1,e,639
DualSimon,3004,1,"<?xml version=""1.0""?>\n<Clock xmlns:dt=""urn:schemas-microsoft-com:datatypes""><Description dt:dt=""string"">E-Prime Primary Realtime Clock</Description><StartTime><Timestamp dt:dt=""int"">0</Timestamp><DateUtc dt:dt=""string"">2017-10-10T17:29:47Z</DateUtc></StartTime><FrequencyChanges><FrequencyChange><Frequency dt:dt=""r8"">2923154</Frequency><Timestamp dt:dt=""r8"">323171865543</Timestamp><Current dt:dt=""r8"">0</Current><DateUtc dt:dt=""string"">2017-10-10T17:29:47Z</DateUtc></FrequencyChange></FrequencyChanges></Clock>\n",DualSimon-003004-1,59.955,59.955,1.0.0.509,1,1049902461,Professional,2.0.10.353,2.0.10.353,10/10/2017,10/10/2017 17:29,18:29:48,2.0.10.248,1,1,1,1,CM1,List1,3,NULL,NULL,NULL,3,1,3,b1,BlockList4,83,NULL,NULL,NULL,25,2,83,NULL,NULL,NULL,NULL,NULL,NULL,w,w,TrialProc,CM1Trails,red,red,w,w,1,w,295,1,w,446
DualSimon,3004,1,"<?xml version=""1.0""?>\n<Clock xmlns:dt=""urn:schemas-microsoft-com:datatypes""><Description dt:dt=""string"">E-Prime Primary Realtime Clock</Description><StartTime><Timestamp dt:dt=""int"">0</Timestamp><DateUtc dt:dt=""string"">2017-10-10T17:29:47Z</DateUtc></StartTime><FrequencyChanges><FrequencyChange><Frequency dt:dt=""r8"">2923154</Frequency><Timestamp dt:dt=""r8"">323171865543</Timestamp><Current dt:dt=""r8"">0</Current><DateUtc dt:dt=""string"">2017-10-10T17:29:47Z</DateUtc></FrequencyChange></FrequencyChanges></Clock>\n",DualSimon-003004-1,59.955,59.955,1.0.0.509,1,1049902461,Professional,2.0.10.353,2.0.10.353,10/10/2017,10/10/2017 17:29,18:29:48,2.0.10.248,1,1,1,1,CM1,List1,3,NULL,NULL,NULL,3,1,3,b1,BlockList4,84,NULL,NULL,NULL,77,2,84,NULL,NULL,NULL,NULL,NULL,NULL,e,w,TrialProc,CM1Trails,blue,red,w,e,1,e,398,1,w,469
DualSimon,3004,1,"<?xml version=""1.0""?>\n<Clock xmlns:dt=""urn:schemas-microsoft-com:datatypes""><Description dt:dt=""string"">E-Prime Primary Realtime Clock</Description><StartTime><Timestamp dt:dt=""int"">0</Timestamp><DateUtc dt:dt=""string"">2017-10-10T17:29:47Z</DateUtc></StartTime><FrequencyChanges><FrequencyChange><Frequency dt:dt=""r8"">2923154</Frequency><Timestamp dt:dt=""r8"">323171865543</Timestamp><Current dt:dt=""r8"">0</Current><DateUtc dt:dt=""string"">2017-10-10T17:29:47Z</DateUtc></FrequencyChange></FrequencyChanges></Clock>\n",DualSimon-003004-1,59.955,59.955,1.0.0.509,1,1049902461,Professional,2.0.10.353,2.0.10.353,10/10/2017,10/10/2017 17:29,18:29:48,2.0.10.248,1,1,1,1,CM1,List1,3,NULL,NULL,NULL,3,1,3,b1,BlockList4,85,NULL,NULL,NULL,20,2,85,NULL,NULL,NULL,NULL,NULL,NULL,w,w,TrialProc,CM1Trails,red,red,w,w,1,w,355,1,w,323
DualSimon,3004,1,"<?xml version=""1.0""?>\n<Clock xmlns:dt=""urn:schemas-microsoft-com:datatypes""><Description dt:dt=""string"">E-Prime Primary Realtime Clock</Description><StartTime><Timestamp dt:dt=""int"">0</Timestamp><DateUtc dt:dt=""string"">2017-10-10T17:29:47Z</DateUtc></StartTime><FrequencyChanges><FrequencyChange><Frequency dt:dt=""r8"">2923154</Frequency><Timestamp dt:dt=""r8"">323171865543</Timestamp><Current dt:dt=""r8"">0</Current><DateUtc dt:dt=""string"">2017-10-10T17:29:47Z</DateUtc></FrequencyChange></FrequencyChanges></Clock>\n",DualSimon-003004-1,59.955,59.955,1.0.0.509,1,1049902461,Professional,2.0.10.353,2.0.10.353,10/10/2017,10/10/2017 17:29,18:29:48,2.0.10.248,1,1,1,1,CM1,List1,3,NULL,NULL,NULL,3,1,3,b1,BlockList4,86,NULL,NULL,NULL,63,2,86,NULL,NULL,NULL,NULL,NULL,NULL,e,e,TrialProc,CM1Trails,blue,blue,w,w,1,e,444,1,e,534
DualSimon,3004,1,"<?xml version=""1.0""?>\n<Clock xmlns:dt=""urn:schemas-microsoft-com:datatypes""><Description dt:dt=""string"">E-Prime Primary Realtime Clock</Description><StartTime><Timestamp dt:dt=""int"">0</Timestamp><DateUtc dt:dt=""string"">2017-10-10T17:29:47Z</DateUtc></StartTime><FrequencyChanges><FrequencyChange><Frequency dt:dt=""r8"">2923154</Frequency><Timestamp dt:dt=""r8"">323171865543</Timestamp><Current dt:dt=""r8"">0</Current><DateUtc dt:dt=""string"">2017-10-10T17:29:47Z</DateUtc></FrequencyChange></FrequencyChanges></Clock>\n",DualSimon-003004-1,59.955,59.955,1.0.0.509,1,1049902461,Professional,2.0.10.353,2.0.10.353,10/10/2017,10/10/2017 17:29,18:29:48,2.0.10.248,1,1,1,1,CM1,List1,3,NULL,NULL,NULL,3,1,3,b1,BlockList4,87,NULL,NULL,NULL,47,2,87,NULL,NULL,NULL,NULL,NULL,NULL,w,e,TrialProc,CM1Trails,red,blue,w,e,1,w,625,0,w,518
DualSimon,3004,1,"<?xml version=""1.0""?>\n<Clock xmlns:dt=""urn:schemas-microsoft-com:datatypes""><Description dt:dt=""string"">E-Prime Primary Realtime Clock</Description><StartTime><Timestamp dt:dt=""int"">0</Timestamp><DateUtc dt:dt=""string"">2017-10-10T17:29:47Z</DateUtc></StartTime><FrequencyChanges><FrequencyChange><Frequency dt:dt=""r8"">2923154</Frequency><Timestamp dt:dt=""r8"">323171865543</Timestamp><Current dt:dt=""r8"">0</Current><DateUtc dt:dt=""string"">2017-10-10T17:29:47Z</DateUtc></FrequencyChange></FrequencyChanges></Clock>\n",DualSimon-003004-1,59.955,59.955,1.0.0.509,1,1049902461,Professional,2.0.10.353,2.0.10.353,10/10/2017,10/10/2017 17:29,18:29:48,2.0.10.248,1,1,1,1,CM1,List1,3,NULL,NULL,NULL,3,1,3,b1,BlockList4,88,NULL,NULL,NULL,24,2,88,NULL,NULL,NULL,NULL,NULL,NULL,w,w,TrialProc,CM1Trails,red,red,w,w,1,w,562,0,e,659
DualSimon,3004,1,"<?xml version=""1.0""?>\n<Clock xmlns:dt=""urn:schemas-microsoft-com:datatypes""><Description dt:dt=""string"">E-Prime Primary Realtime Clock</Description><StartTime><Timestamp dt:dt=""int"">0</Timestamp><DateUtc dt:dt=""string"">2017-10-10T17:29:47Z</DateUtc></StartTime><FrequencyChanges><FrequencyChange><Frequency dt:dt=""r8"">2923154</Frequency><Timestamp dt:dt=""r8"">323171865543</Timestamp><Current dt:dt=""r8"">0</Current><DateUtc dt:dt=""string"">2017-10-10T17:29:47Z</DateUtc></FrequencyChange></FrequencyChanges></Clock>\n",DualSimon-003004-1,59.955,59.955,1.0.0.509,1,1049902461,Professional,2.0.10.353,2.0.10.353,10/10/2017,10/10/2017 17:29,18:29:48,2.0.10.248,1,1,1,1,CM1,List1,3,NULL,NULL,NULL,3,1,3,b1,BlockList4,89,NULL,NULL,NULL,29,2,89,NULL,NULL,NULL,NULL,NULL,NULL,w,w,TrialProc,CM1Trails,red,red,w,w,1,w,343,1,w,463
DualSimon,3004,1,"<?xml version=""1.0""?>\n<Clock xmlns:dt=""urn:schemas-microsoft-com:datatypes""><Description dt:dt=""string"">E-Prime Primary Realtime Clock</Description><StartTime><Timestamp dt:dt=""int"">0</Timestamp><DateUtc dt:dt=""string"">2017-10-10T17:29:47Z</DateUtc></StartTime><FrequencyChanges><FrequencyChange><Frequency dt:dt=""r8"">2923154</Frequency><Timestamp dt:dt=""r8"">323171865543</Timestamp><Current dt:dt=""r8"">0</Current><DateUtc dt:dt=""string"">2017-10-10T17:29:47Z</DateUtc></FrequencyChange></FrequencyChanges></Clock>\n",DualSimon-003004-1,59.955,59.955,1.0.0.509,1,1049902461,Professional,2.0.10.353,2.0.10.353,10/10/2017,10/10/2017 17:29,18:29:48,2.0.10.248,1,1,1,1,CM1,List1,3,NULL,NULL,NULL,3,1,3,b1,BlockList4,90,NULL,NULL,NULL,38,2,90,NULL,NULL,NULL,NULL,NULL,NULL,e,w,TrialProc,CM1Trails,blue,red,e,w,1,e,338,1,w,378
DualSimon,3004,1,"<?xml version=""1.0""?>\n<Clock xmlns:dt=""urn:schemas-microsoft-com:datatypes""><Description dt:dt=""string"">E-Prime Primary Realtime Clock</Description><StartTime><Timestamp dt:dt=""int"">0</Timestamp><DateUtc dt:dt=""string"">2017-10-10T17:29:47Z</DateUtc></StartTime><FrequencyChanges><FrequencyChange><Frequency dt:dt=""r8"">2923154</Frequency><Timestamp dt:dt=""r8"">323171865543</Timestamp><Current dt:dt=""r8"">0</Current><DateUtc dt:dt=""string"">2017-10-10T17:29:47Z</DateUtc></FrequencyChange></FrequencyChanges></Clock>\n",DualSimon-003004-1,59.955,59.955,1.0.0.509,1,1049902461,Professional,2.0.10.353,2.0.10.353,10/10/2017,10/10/2017 17:29,18:29:48,2.0.10.248,1,1,1,1,CM1,List1,3,NULL,NULL,NULL,3,1,3,b1,BlockList4,91,NULL,NULL,NULL,21,2,91,NULL,NULL,NULL,NULL,NULL,NULL,w,w,TrialProc,CM1Trails,red,red,w,w,1,w,413,1,w,321
DualSimon,3004,1,"<?xml version=""1.0""?>\n<Clock xmlns:dt=""urn:schemas-microsoft-com:datatypes""><Description dt:dt=""string"">E-Prime Primary Realtime Clock</Description><StartTime><Timestamp dt:dt=""int"">0</Timestamp><DateUtc dt:dt=""string"">2017-10-10T17:29:47Z</DateUtc></StartTime><FrequencyChanges><FrequencyChange><Frequency dt:dt=""r8"">2923154</Frequency><Timestamp dt:dt=""r8"">323171865543</Timestamp><Current dt:dt=""r8"">0</Current><DateUtc dt:dt=""string"">2017-10-10T17:29:47Z</DateUtc></FrequencyChange></FrequencyChanges></Clock>\n",DualSimon-003004-1,59.955,59.955,1.0.0.509,1,1049902461,Professional,2.0.10.353,2.0.10.353,10/10/2017,10/10/2017 17:29,18:29:48,2.0.10.248,1,1,1,1,CM1,List1,3,NULL,NULL,NULL,3,1,3,b1,BlockList4,92,NULL,NULL,NULL,2,2,92,NULL,NULL,NULL,NULL,NULL,NULL,w,w,TrialProc,CM1Trails,red,red,w,w,1,w,454,1,w,426
DualSimon,3004,1,"<?xml version=""1.0""?>\n<Clock xmlns:dt=""urn:schemas-microsoft-com:datatypes""><Description dt:dt=""string"">E-Prime Primary Realtime Clock</Description><StartTime><Timestamp dt:dt=""int"">0</Timestamp><DateUtc dt:dt=""string"">2017-10-10T17:29:47Z</DateUtc></StartTime><FrequencyChanges><FrequencyChange><Frequency dt:dt=""r8"">2923154</Frequency><Timestamp dt:dt=""r8"">323171865543</Timestamp><Current dt:dt=""r8"">0</Current><DateUtc dt:dt=""string"">2017-10-10T17:29:47Z</DateUtc></FrequencyChange></FrequencyChanges></Clock>\n",DualSimon-003004-1,59.955,59.955,1.0.0.509,1,1049902461,Professional,2.0.10.353,2.0.10.353,10/10/2017,10/10/2017 17:29,18:29:48,2.0.10.248,1,1,1,1,CM1,List1,3,NULL,NULL,NULL,3,1,3,b1,BlockList4,93,NULL,NULL,NULL,67,2,93,NULL,NULL,NULL,NULL,NULL,NULL,w,w,TrialProc,CM1Trails,red,red,e,e,1,w,378,0,e,286
DualSimon,3004,1,"<?xml version=""1.0""?>\n<Clock xmlns:dt=""urn:schemas-microsoft-com:datatypes""><Description dt:dt=""string"">E-Prime Primary Realtime Clock</Description><StartTime><Timestamp dt:dt=""int"">0</Timestamp><DateUtc dt:dt=""string"">2017-10-10T17:29:47Z</DateUtc></StartTime><FrequencyChanges><FrequencyChange><Frequency dt:dt=""r8"">2923154</Frequency><Timestamp dt:dt=""r8"">323171865543</Timestamp><Current dt:dt=""r8"">0</Current><DateUtc dt:dt=""string"">2017-10-10T17:29:47Z</DateUtc></FrequencyChange></FrequencyChanges></Clock>\n",DualSimon-003004-1,59.955,59.955,1.0.0.509,1,1049902461,Professional,2.0.10.353,2.0.10.353,10/10/2017,10/10/2017 17:29,18:29:48,2.0.10.248,1,1,1,1,CM1,List1,3,NULL,NULL,NULL,3,1,3,b1,BlockList4,94,NULL,NULL,NULL,1,2,94,NULL,NULL,NULL,NULL,NULL,NULL,e,e,TrialProc,CM1Trails,blue,blue,e,e,1,e,388,1,e,386
DualSimon,3004,1,"<?xml version=""1.0""?>\n<Clock xmlns:dt=""urn:schemas-microsoft-com:datatypes""><Description dt:dt=""string"">E-Prime Primary Realtime Clock</Description><StartTime><Timestamp dt:dt=""int"">0</Timestamp><DateUtc dt:dt=""string"">2017-10-10T17:29:47Z</DateUtc></StartTime><FrequencyChanges><FrequencyChange><Frequency dt:dt=""r8"">2923154</Frequency><Timestamp dt:dt=""r8"">323171865543</Timestamp><Current dt:dt=""r8"">0</Current><DateUtc dt:dt=""string"">2017-10-10T17:29:47Z</DateUtc></FrequencyChange></FrequencyChanges></Clock>\n",DualSimon-003004-1,59.955,59.955,1.0.0.509,1,1049902461,Professional,2.0.10.353,2.0.10.353,10/10/2017,10/10/2017 17:29,18:29:48,2.0.10.248,1,1,1,1,CM1,List1,3,NULL,NULL,NULL,3,1,3,b1,BlockList4,95,NULL,NULL,NULL,54,2,95,NULL,NULL,NULL,NULL,NULL,NULL,e,e,TrialProc,CM1Trails,blue,blue,w,w,1,e,483,1,e,603
DualSimon,3004,1,"<?xml version=""1.0""?>\n<Clock xmlns:dt=""urn:schemas-microsoft-com:datatypes""><Description dt:dt=""string"">E-Prime Primary Realtime Clock</Description><StartTime><Timestamp dt:dt=""int"">0</Timestamp><DateUtc dt:dt=""string"">2017-10-10T17:29:47Z</DateUtc></StartTime><FrequencyChanges><FrequencyChange><Frequency dt:dt=""r8"">2923154</Frequency><Timestamp dt:dt=""r8"">323171865543</Timestamp><Current dt:dt=""r8"">0</Current><DateUtc dt:dt=""string"">2017-10-10T17:29:47Z</DateUtc></FrequencyChange></FrequencyChanges></Clock>\n",DualSimon-003004-1,59.955,59.955,1.0.0.509,1,1049902461,Professional,2.0.10.353,2.0.10.353,10/10/2017,10/10/2017 17:29,18:29:48,2.0.10.248,1,1,1,1,CM1,List1,3,NULL,NULL,NULL,3,1,3,b1,BlockList4,96,NULL,NULL,NULL,15,2,96,NULL,NULL,NULL,NULL,NULL,NULL,e,e,TrialProc,CM1Trails,blue,blue,e,e,1,e,513,1,e,397
DualSimon,3004,1,"<?xml version=""1.0""?>\n<Clock xmlns:dt=""urn:schemas-microsoft-com:datatypes""><Description dt:dt=""string"">E-Prime Primary Realtime Clock</Description><StartTime><Timestamp dt:dt=""int"">0</Timestamp><DateUtc dt:dt=""string"">2017-10-10T17:29:47Z</DateUtc></StartTime><FrequencyChanges><FrequencyChange><Frequency dt:dt=""r8"">2923154</Frequency><Timestamp dt:dt=""r8"">323171865543</Timestamp><Current dt:dt=""r8"">0</Current><DateUtc dt:dt=""string"">2017-10-10T17:29:47Z</DateUtc></FrequencyChange></FrequencyChanges></Clock>\n",DualSimon-003004-1,59.955,59.955,1.0.0.509,1,1049902461,Professional,2.0.10.353,2.0.10.353,10/10/2017,10/10/2017 17:29,18:29:48,2.0.10.248,2,2,1,2,CM2,List1,1,1,1,1,NULL,NULL,NULL,CM2PracTrial,BlockList2,1,NULL,NULL,NULL,NULL,NULL,NULL,10,2,1,NULL,NULL,NULL,w,e,TrialProc7,CM2PracTrials,blue,red,w,e,1,w,503,1,e,517
DualSimon,3004,1,"<?xml version=""1.0""?>\n<Clock xmlns:dt=""urn:schemas-microsoft-com:datatypes""><Description dt:dt=""string"">E-Prime Primary Realtime Clock</Description><StartTime><Timestamp dt:dt=""int"">0</Timestamp><DateUtc dt:dt=""string"">2017-10-10T17:29:47Z</DateUtc></StartTime><FrequencyChanges><FrequencyChange><Frequency dt:dt=""r8"">2923154</Frequency><Timestamp dt:dt=""r8"">323171865543</Timestamp><Current dt:dt=""r8"">0</Current><DateUtc dt:dt=""string"">2017-10-10T17:29:47Z</DateUtc></FrequencyChange></FrequencyChanges></Clock>\n",DualSimon-003004-1,59.955,59.955,1.0.0.509,1,1049902461,Professional,2.0.10.353,2.0.10.353,10/10/2017,10/10/2017 17:29,18:29:48,2.0.10.248,2,2,1,2,CM2,List1,1,1,1,1,NULL,NULL,NULL,CM2PracTrial,BlockList2,2,NULL,NULL,NULL,NULL,NULL,NULL,11,2,2,NULL,NULL,NULL,e,w,TrialProc7,CM2PracTrials,red,blue,w,e,1,e,400,1,w,367
