ExperimentName,Subject,Session,Clock.Information,DataFile.Basename,Display1.RefreshRate,Display2.RefreshRate,ExperimentVersion,Group,RandomSeed,RuntimeCapabilities,RuntimeVersion,RuntimeVersionExpected,SessionDate,SessionStartDateTimeUtc,SessionTime,StudioVersion,Block,List1,List1.Cycle,List1.Sample,Procedure[Block],Running[Block],Trial,BlockList1,BlockList1.Cycle,BlockList1.Sample,BlockList2,BlockList2.Cycle,BlockList2.Sample,Procedure[Trial],Running[Trial],SubTrial,b1trails1,b1trails1.Cycle,b1trails1.Sample,CorrectSubj1,List2,List2.Cycle,List2.Sample,PracTrials1,PracTrials1.Cycle,PracTrials1.Sample,PracTrials2,PracTrials2.Cycle,PracTrials2.Sample,Procedure[SubTrial],Running[SubTrial],Screen1_Obj_Colour,Screen_1_Obj_Pos,Subject1ACC,Subject1RESP,Subject1RT
Individual,1,1,"<?xml version=""1.0""?>\n<Clock xmlns:dt=""urn:schemas-microsoft-com:datatypes""><Description dt:dt=""string"">E-Prime Primary Realtime Clock</Description><StartTime><Timestamp dt:dt=""int"">0</Timestamp><DateUtc dt:dt=""string"">2017-10-12T11:37:33Z</DateUtc></StartTime><FrequencyChanges><FrequencyChange><Frequency dt:dt=""r8"">2923154</Frequency><Timestamp dt:dt=""r8"">766478057744</Timestamp><Current dt:dt=""r8"">0</Current><DateUtc dt:dt=""string"">2017-10-12T11:37:33Z</DateUtc></FrequencyChange></FrequencyChanges></Clock>\n",Individual-001-1,59.955,?,1.0.0.485,1,1974451564,Professional,2.0.10.353,2.0.10.353,10/12/2017,12/10/2017 11:37,12:37:33,2.0.10.248,1,1,1,1,M1,List1,1,1,1,1,NULL,NULL,NULL,Prac1,BlockList1,1,NULL,NULL,NULL,e,NULL,NULL,NULL,9,2,1,NULL,NULL,NULL,TrialProc47,PracTrials1,blue,e,1,e,374
Individual,1,1,"<?xml version=""1.0""?>\n<Clock xmlns:dt=""urn:schemas-microsoft-com:datatypes""><Description dt:dt=""string"">E-Prime Primary Realtime Clock</Description><StartTime><Timestamp dt:dt=""int"">0</Timestamp><DateUtc dt:dt=""string"">2017-10-12T11:37:33Z</DateUtc></StartTime><FrequencyChanges><FrequencyChange><Frequency dt:dt=""r8"">2923154</Frequency><Timestamp dt:dt=""r8"">766478057744</Timestamp><Current dt:dt=""r8"">0</Current><DateUtc dt:dt=""string"">2017-10-12T11:37:33Z</DateUtc></FrequencyChange></FrequencyChanges></Clock>\n",Individual-001-1,59.955,?,1.0.0.485,1,1974451564,Professional,2.0.10.353,2.0.10.353,10/12/2017,12/10/2017 11:37,12:37:33,2.0.10.248,1,1,1,1,M1,List1,1,1,1,1,NULL,NULL,NULL,Prac1,BlockList1,2,NULL,NULL,NULL,e,NULL,NULL,NULL,14,2,2,NULL,NULL,NULL,TrialProc47,PracTrials1,blue,w,1,e,470
Individual,1,1,"<?xml version=""1.0""?>\n<Clock xmlns:dt=""urn:schemas-microsoft-com:datatypes""><Description dt:dt=""string"">E-Prime Primary Realtime Clock</Description><StartTime><Timestamp dt:dt=""int"">0</Timestamp><DateUtc dt:dt=""string"">2017-10-12T11:37:33Z</DateUtc></StartTime><FrequencyChanges><FrequencyChange><Frequency dt:dt=""r8"">2923154</Frequency><Timestamp dt:dt=""r8"">766478057744</Timestamp><Current dt:dt=""r8"">0</Current><DateUtc dt:dt=""string"">2017-10-12T11:37:33Z</DateUtc></FrequencyChange></FrequencyChanges></Clock>\n",Individual-001-1,59.955,?,1.0.0.485,1,1974451564,Professional,2.0.10.353,2.0.10.353,10/12/2017,12/10/2017 11:37,12:37:33,2.0.10.248,1,1,1,1,M1,List1,1,1,1,1,NULL,NULL,NULL,Prac1,BlockList1,3,NULL,NULL,NULL,e,NULL,NULL,NULL,2,2,3,NULL,NULL,NULL,TrialProc47,PracTrials1,blue,w,1,e,493
Individual,1,1,"<?xml version=""1.0""?>\n<Clock xmlns:dt=""urn:schemas-microsoft-com:datatypes""><Description dt:dt=""string"">E-Prime Primary Realtime Clock</Description><StartTime><Timestamp dt:dt=""int"">0</Timestamp><DateUtc dt:dt=""string"">2017-10-12T11:37:33Z</DateUtc></StartTime><FrequencyChanges><FrequencyChange><Frequency dt:dt=""r8"">2923154</Frequency><Timestamp dt:dt=""r8"">766478057744</Timestamp><Current dt:dt=""r8"">0</Current><DateUtc dt:dt=""string"">2017-10-12T11:37:33Z</DateUtc></FrequencyChange></FrequencyChanges></Clock>\n",Individual-001-1,59.955,?,1.0.0.485,1,1974451564,Professional,2.0.10.353,2.0.10.353,10/12/2017,12/10/2017 11:37,12:37:33,2.0.10.248,1,1,1,1,M1,List1,1,1,1,1,NULL,NULL,NULL,Prac1,BlockList1,4,NULL,NULL,NULL,w,NULL,NULL,NULL,11,2,4,NULL,NULL,NULL,TrialProc47,PracTrials1,red,w,1,w,465
Individual,1,1,"<?xml version=""1.0""?>\n<Clock xmlns:dt=""urn:schemas-microsoft-com:datatypes""><Description dt:dt=""string"">E-Prime Primary Realtime Clock</Description><StartTime><Timestamp dt:dt=""int"">0</Timestamp><DateUtc dt:dt=""string"">2017-10-12T11:37:33Z</DateUtc></StartTime><FrequencyChanges><FrequencyChange><Frequency dt:dt=""r8"">2923154</Frequency><Timestamp dt:dt=""r8"">766478057744</Timestamp><Current dt:dt=""r8"">0</Current><DateUtc dt:dt=""string"">2017-10-12T11:37:33Z</DateUtc></FrequencyChange></FrequencyChanges></Clock>\n",Individual-001-1,59.955,?,1.0.0.485,1,1974451564,Professional,2.0.10.353,2.0.10.353,10/12/2017,12/10/2017 11:37,12:37:33,2.0.10.248,1,1,1,1,M1,List1,1,1,1,1,NULL,NULL,NULL,Prac1,BlockList1,5,NULL,NULL,NULL,e,NULL,NULL,NULL,10,2,5,NULL,NULL,NULL,TrialProc47,PracTrials1,blue,w,1,e,563
Individual,1,1,"<?xml version=""1.0""?>\n<Clock xmlns:dt=""urn:schemas-microsoft-com:datatypes""><Description dt:dt=""string"">E-Prime Primary Realtime Clock</Description><StartTime><Timestamp dt:dt=""int"">0</Timestamp><DateUtc dt:dt=""string"">2017-10-12T11:37:33Z</DateUtc></StartTime><FrequencyChanges><FrequencyChange><Frequency dt:dt=""r8"">2923154</Frequency><Timestamp dt:dt=""r8"">766478057744</Timestamp><Current dt:dt=""r8"">0</Current><DateUtc dt:dt=""string"">2017-10-12T11:37:33Z</DateUtc></FrequencyChange></FrequencyChanges></Clock>\n",Individual-001-1,59.955,?,1.0.0.485,1,1974451564,Professional,2.0.10.353,2.0.10.353,10/12/2017,12/10/2017 11:37,12:37:33,2.0.10.248,1,1,1,1,M1,List1,1,1,1,1,NULL,NULL,NULL,Prac1,BlockList1,6,NULL,NULL,NULL,e,NULL,NULL,NULL,13,2,6,NULL,NULL,NULL,TrialProc47,PracTrials1,blue,e,1,e,400
Individual,1,1,"<?xml version=""1.0""?>\n<Clock xmlns:dt=""urn:schemas-microsoft-com:datatypes""><Description dt:dt=""string"">E-Prime Primary Realtime Clock</Description><StartTime><Timestamp dt:dt=""int"">0</Timestamp><DateUtc dt:dt=""string"">2017-10-12T11:37:33Z</DateUtc></StartTime><FrequencyChanges><FrequencyChange><Frequency dt:dt=""r8"">2923154</Frequency><Timestamp dt:dt=""r8"">766478057744</Timestamp><Current dt:dt=""r8"">0</Current><DateUtc dt:dt=""string"">2017-10-12T11:37:33Z</DateUtc></FrequencyChange></FrequencyChanges></Clock>\n",Individual-001-1,59.955,?,1.0.0.485,1,1974451564,Professional,2.0.10.353,2.0.10.353,10/12/2017,12/10/2017 11:37,12:37:33,2.0.10.248,1,1,1,1,M1,List1,1,1,1,1,NULL,NULL,NULL,Prac1,BlockList1,7,NULL,NULL,NULL,w,NULL,NULL,NULL,7,2,7,NULL,NULL,NULL,TrialProc47,PracTrials1,red,w,1,w,365
Individual,1,1,"<?xml version=""1.0""?>\n<Clock xmlns:dt=""urn:schemas-microsoft-com:datatypes""><Description dt:dt=""string"">E-Prime Primary Realtime Clock</Description><StartTime><Timestamp dt:dt=""int"">0</Timestamp><DateUtc dt:dt=""string"">2017-10-12T11:37:33Z</DateUtc></StartTime><FrequencyChanges><FrequencyChange><Frequency dt:dt=""r8"">2923154</Frequency><Timestamp dt:dt=""r8"">766478057744</Timestamp><Current dt:dt=""r8"">0</Current><DateUtc dt:dt=""string"">2017-10-12T11:37:33Z</DateUtc></FrequencyChange></FrequencyChanges></Clock>\n",Individual-001-1,59.955,?,1.0.0.485,1,1974451564,Professional,2.0.10.353,2.0.10.353,10/12/2017,12/10/2017 11:37,12:37:33,2.0.10.248,1,1,1,1,M1,List1,1,1,1,1,NULL,NULL,NULL,Prac1,BlockList1,8,NULL,NULL,NULL,e,NULL,NULL,NULL,1,2,8,NULL,NULL,NULL,TrialProc47,PracTrials1,blue,e,1,e,361
Individual,1,1,"<?xml version=""1.0""?>\n<Clock xmlns:dt=""urn:schemas-microsoft-com:datatypes""><Description dt:dt=""string"">E-Prime Primary Realtime Clock</Description><StartTime><Timestamp dt:dt=""int"">0</Timestamp><DateUtc dt:dt=""string"">2017-10-12T11:37:33Z</DateUtc></StartTime><FrequencyChanges><FrequencyChange><Frequency dt:dt=""r8"">2923154</Frequency><Timestamp dt:dt=""r8"">766478057744</Timestamp><Current dt:dt=""r8"">0</Current><DateUtc dt:dt=""string"">2017-10-12T11:37:33Z</DateUtc></FrequencyChange></FrequencyChanges></Clock>\n",Individual-001-1,59.955,?,1.0.0.485,1,1974451564,Professional,2.0.10.353,2.0.10.353,10/12/2017,12/10/2017 11:37,12:37:33,2.0.10.248,1,1,1,1,M1,List1,1,1,1,1,NULL,NULL,NULL,Prac1,BlockList1,9,NULL,NULL,NULL,w,NULL,NULL,NULL,4,2,9,NULL,NULL,NULL,TrialProc47,PracTrials1,red,e,1,w,615
Individual,1,1,"<?xml version=""1.0""?>\n<Clock xmlns:dt=""urn:schemas-microsoft-com:datatypes""><Description dt:dt=""string"">E-Prime Primary Realtime Clock</Description><StartTime><Timestamp dt:dt=""int"">0</Timestamp><DateUtc dt:dt=""string"">2017-10-12T11:37:33Z</DateUtc></StartTime><FrequencyChanges><FrequencyChange><Frequency dt:dt=""r8"">2923154</Frequency><Timestamp dt:dt=""r8"">766478057744</Timestamp><Current dt:dt=""r8"">0</Current><DateUtc dt:dt=""string"">2017-10-12T11:37:33Z</DateUtc></FrequencyChange></FrequencyChanges></Clock>\n",Individual-001-1,59.955,?,1.0.0.485,1,1974451564,Professional,2.0.10.353,2.0.10.353,10/12/2017,12/10/2017 11:37,12:37:33,2.0.10.248,1,1,1,1,M1,List1,1,1,1,1,NULL,NULL,NULL,Prac1,BlockList1,10,NULL,NULL,NULL,e,NULL,NULL,NULL,6,2,10,NULL,NULL,NULL,TrialProc47,PracTrials1,blue,w,1,e,667
Individual,1,1,"<?xml version=""1.0""?>\n<Clock xmlns:dt=""urn:schemas-microsoft-com:datatypes""><Description dt:dt=""string"">E-Prime Primary Realtime Clock</Description><StartTime><Timestamp dt:dt=""int"">0</Timestamp><DateUtc dt:dt=""string"">2017-10-12T11:37:33Z</DateUtc></StartTime><FrequencyChanges><FrequencyChange><Frequency dt:dt=""r8"">2923154</Frequency><Timestamp dt:dt=""r8"">766478057744</Timestamp><Current dt:dt=""r8"">0</Current><DateUtc dt:dt=""string"">2017-10-12T11:37:33Z</DateUtc></FrequencyChange></FrequencyChanges></Clock>\n",Individual-001-1,59.955,?,1.0.0.485,1,1974451564,Professional,2.0.10.353,2.0.10.353,10/12/2017,12/10/2017 11:37,12:37:33,2.0.10.248,1,1,1,1,M1,List1,1,1,1,1,NULL,NULL,NULL,Prac1,BlockList1,11,NULL,NULL,NULL,e,NULL,NULL,NULL,5,2,11,NULL,NULL,NULL,TrialProc47,PracTrials1,blue,e,1,e,480
Individual,1,1,"<?xml version=""1.0""?>\n<Clock xmlns:dt=""urn:schemas-microsoft-com:datatypes""><Description dt:dt=""string"">E-Prime Primary Realtime Clock</Description><StartTime><Timestamp dt:dt=""int"">0</Timestamp><DateUtc dt:dt=""string"">2017-10-12T11:37:33Z</DateUtc></StartTime><FrequencyChanges><FrequencyChange><Frequency dt:dt=""r8"">2923154</Frequency><Timestamp dt:dt=""r8"">766478057744</Timestamp><Current dt:dt=""r8"">0</Current><DateUtc dt:dt=""string"">2017-10-12T11:37:33Z</DateUtc></FrequencyChange></FrequencyChanges></Clock>\n",Individual-001-1,59.955,?,1.0.0.485,1,1974451564,Professional,2.0.10.353,2.0.10.353,10/12/2017,12/10/2017 11:37,12:37:33,2.0.10.248,1,1,1,1,M1,List1,1,1,1,1,NULL,NULL,NULL,Prac1,BlockList1,12,NULL,NULL,NULL,w,NULL,NULL,NULL,3,2,12,NULL,NULL,NULL,TrialProc47,PracTrials1,red,w,1,w,599
Individual,1,1,"<?xml version=""1.0""?>\n<Clock xmlns:dt=""urn:schemas-microsoft-com:datatypes""><Description dt:dt=""string"">E-Prime Primary Realtime Clock</Description><StartTime><Timestamp dt:dt=""int"">0</Timestamp><DateUtc dt:dt=""string"">2017-10-12T11:37:33Z</DateUtc></StartTime><FrequencyChanges><FrequencyChange><Frequency dt:dt=""r8"">2923154</Frequency><Timestamp dt:dt=""r8"">766478057744</Timestamp><Current dt:dt=""r8"">0</Current><DateUtc dt:dt=""string"">2017-10-12T11:37:33Z</DateUtc></FrequencyChange></FrequencyChanges></Clock>\n",Individual-001-1,59.955,?,1.0.0.485,1,1974451564,Professional,2.0.10.353,2.0.10.353,10/12/2017,12/10/2017 11:37,12:37:33,2.0.10.248,1,1,1,1,M1,List1,1,1,1,1,NULL,NULL,NULL,Prac1,BlockList1,13,NULL,NULL,NULL,w,NULL,NULL,NULL,12,2,13,NULL,NULL,NULL,TrialProc47,PracTrials1,red,e,1,w,730
Individual,1,1,"<?xml version=""1.0""?>\n<Clock xmlns:dt=""urn:schemas-microsoft-com:datatypes""><Description dt:dt=""string"">E-Prime Primary Realtime Clock</Description><StartTime><Timestamp dt:dt=""int"">0</Timestamp><DateUtc dt:dt=""string"">2017-10-12T11:37:33Z</DateUtc></StartTime><FrequencyChanges><FrequencyChange><Frequency dt:dt=""r8"">2923154</Frequency><Timestamp dt:dt=""r8"">766478057744</Timestamp><Current dt:dt=""r8"">0</Current><DateUtc dt:dt=""string"">2017-10-12T11:37:33Z</DateUtc></FrequencyChange></FrequencyChanges></Clock>\n",Individual-001-1,59.955,?,1.0.0.485,1,1974451564,Professional,2.0.10.353,2.0.10.353,10/12/2017,12/10/2017 11:37,12:37:33,2.0.10.248,1,1,1,1,M1,List1,1,1,1,1,NULL,NULL,NULL,Prac1,BlockList1,14,NULL,NULL,NULL,w,NULL,NULL,NULL,15,2,14,NULL,NULL,NULL,TrialProc47,PracTrials1,red,w,1,w,409
Individual,1,1,"<?xml version=""1.0""?>\n<Clock xmlns:dt=""urn:schemas-microsoft-com:datatypes""><Description dt:dt=""string"">E-Prime Primary Realtime Clock</Description><StartTime><Timestamp dt:dt=""int"">0</Timestamp><DateUtc dt:dt=""string"">2017-10-12T11:37:33Z</DateUtc></StartTime><FrequencyChanges><FrequencyChange><Frequency dt:dt=""r8"">2923154</Frequency><Timestamp dt:dt=""r8"">766478057744</Timestamp><Current dt:dt=""r8"">0</Current><DateUtc dt:dt=""string"">2017-10-12T11:37:33Z</DateUtc></FrequencyChange></FrequencyChanges></Clock>\n",Individual-001-1,59.955,?,1.0.0.485,1,1974451564,Professional,2.0.10.353,2.0.10.353,10/12/2017,12/10/2017 11:37,12:37:33,2.0.10.248,1,1,1,1,M1,List1,1,1,1,1,NULL,NULL,NULL,Prac1,BlockList1,15,NULL,NULL,NULL,w,NULL,NULL,NULL,8,2,15,NULL,NULL,NULL,TrialProc47,PracTrials1,red,e,1,w,477
Individual,1,1,"<?xml version=""1.0""?>\n<Clock xmlns:dt=""urn:schemas-microsoft-com:datatypes""><Description dt:dt=""string"">E-Prime Primary Realtime Clock</Description><StartTime><Timestamp dt:dt=""int"">0</Timestamp><DateUtc dt:dt=""string"">2017-10-12T11:37:33Z</DateUtc></StartTime><FrequencyChanges><FrequencyChange><Frequency dt:dt=""r8"">2923154</Frequency><Timestamp dt:dt=""r8"">766478057744</Timestamp><Current dt:dt=""r8"">0</Current><DateUtc dt:dt=""string"">2017-10-12T11:37:33Z</DateUtc></FrequencyChange></FrequencyChanges></Clock>\n",Individual-001-1,59.955,?,1.0.0.485,1,1974451564,Professional,2.0.10.353,2.0.10.353,10/12/2017,12/10/2017 11:37,12:37:33,2.0.10.248,1,1,1,1,M1,List1,1,1,1,1,NULL,NULL,NULL,Prac1,BlockList1,16,NULL,NULL,NULL,w,NULL,NULL,NULL,16,2,16,NULL,NULL,NULL,TrialProc47,PracTrials1,red,e,1,w,572
Individual,1,1,"<?xml version=""1.0""?>\n<Clock xmlns:dt=""urn:schemas-microsoft-com:datatypes""><Description dt:dt=""string"">E-Prime Primary Realtime Clock</Description><StartTime><Timestamp dt:dt=""int"">0</Timestamp><DateUtc dt:dt=""string"">2017-10-12T11:37:33Z</DateUtc></StartTime><FrequencyChanges><FrequencyChange><Frequency dt:dt=""r8"">2923154</Frequency><Timestamp dt:dt=""r8"">766478057744</Timestamp><Current dt:dt=""r8"">0</Current><DateUtc dt:dt=""string"">2017-10-12T11:37:33Z</DateUtc></FrequencyChange></FrequencyChanges></Clock>\n",Individual-001-1,59.955,?,1.0.0.485,1,1974451564,Professional,2.0.10.353,2.0.10.353,10/12/2017,12/10/2017 11:37,12:37:33,2.0.10.248,1,1,1,1,M1,List1,2,2,1,2,NULL,NULL,NULL,InstruProc,BlockList1,NULL,NULL,NULL,NULL,NULL,NULL,NULL,NULL,NULL,NULL,NULL,NULL,NULL,NULL,NULL,NULL,NULL,NULL,NULL,NULL,NULL
Individual,1,1,"<?xml version=""1.0""?>\n<Clock xmlns:dt=""urn:schemas-microsoft-com:datatypes""><Description dt:dt=""string"">E-Prime Primary Realtime Clock</Description><StartTime><Timestamp dt:dt=""int"">0</Timestamp><DateUtc dt:dt=""string"">2017-10-12T11:37:33Z</DateUtc></StartTime><FrequencyChanges><FrequencyChange><Frequency dt:dt=""r8"">2923154</Frequency><Timestamp dt:dt=""r8"">766478057744</Timestamp><Current dt:dt=""r8"">0</Current><DateUtc dt:dt=""string"">2017-10-12T11:37:33Z</DateUtc></FrequencyChange></FrequencyChanges></Clock>\n",Individual-001-1,59.955,?,1.0.0.485,1,1974451564,Professional,2.0.10.353,2.0.10.353,10/12/2017,12/10/2017 11:37,12:37:33,2.0.10.248,1,1,1,1,M1,List1,3,3,1,3,NULL,NULL,NULL,b1,BlockList1,1,61,2,1,e,NULL,NULL,NULL,NULL,NULL,NULL,NULL,NULL,NULL,TrialProc4,b1trails1,blue,e,1,e,376
Individual,1,1,"<?xml version=""1.0""?>\n<Clock xmlns:dt=""urn:schemas-microsoft-com:datatypes""><Description dt:dt=""string"">E-Prime Primary Realtime Clock</Description><StartTime><Timestamp dt:dt=""int"">0</Timestamp><DateUtc dt:dt=""string"">2017-10-12T11:37:33Z</DateUtc></StartTime><FrequencyChanges><FrequencyChange><Frequency dt:dt=""r8"">2923154</Frequency><Timestamp dt:dt=""r8"">766478057744</Timestamp><Current dt:dt=""r8"">0</Current><DateUtc dt:dt=""string"">2017-10-12T11:37:33Z</DateUtc></FrequencyChange></FrequencyChanges></Clock>\n",Individual-001-1,59.955,?,1.0.0.485,1,1974451564,Professional,2.0.10.353,2.0.10.353,10/12/2017,12/10/2017 11:37,12:37:33,2.0.10.248,1,1,1,1,M1,List1,3,3,1,3,NULL,NULL,NULL,b1,BlockList1,2,33,2,2,e,NULL,NULL,NULL,NULL,NULL,NULL,NULL,NULL,NULL,TrialProc4,b1trails1,blue,e,1,e,516
Individual,1,1,"<?xml version=""1.0""?>\n<Clock xmlns:dt=""urn:schemas-microsoft-com:datatypes""><Description dt:dt=""string"">E-Prime Primary Realtime Clock</Description><StartTime><Timestamp dt:dt=""int"">0</Timestamp><DateUtc dt:dt=""string"">2017-10-12T11:37:33Z</DateUtc></StartTime><FrequencyChanges><FrequencyChange><Frequency dt:dt=""r8"">2923154</Frequency><Timestamp dt:dt=""r8"">766478057744</Timestamp><Current dt:dt=""r8"">0</Current><DateUtc dt:dt=""string"">2017-10-12T11:37:33Z</DateUtc></FrequencyChange></FrequencyChanges></Clock>\n",Individual-001-1,59.955,?,1.0.0.485,1,1974451564,Professional,2.0.10.353,2.0.10.353,10/12/2017,12/10/2017 11:37,12:37:33,2.0.10.248,1,1,1,1,M1,List1,3,3,1,3,NULL,NULL,NULL,b1,BlockList1,3,64,2,3,w,NULL,NULL,NULL,NULL,NULL,NULL,NULL,NULL,NULL,TrialProc4,b1trails1,red,e,1,w,395
Individual,1,1,"<?xml version=""1.0""?>\n<Clock xmlns:dt=""urn:schemas-microsoft-com:datatypes""><Description dt:dt=""string"">E-Prime Primary Realtime Clock</Description><StartTime><Timestamp dt:dt=""int"">0</Timestamp><DateUtc dt:dt=""string"">2017-10-12T11:37:33Z</DateUtc></StartTime><FrequencyChanges><FrequencyChange><Frequency dt:dt=""r8"">2923154</Frequency><Timestamp dt:dt=""r8"">766478057744</Timestamp><Current dt:dt=""r8"">0</Current><DateUtc dt:dt=""string"">2017-10-12T11:37:33Z</DateUtc></FrequencyChange></FrequencyChanges></Clock>\n",Individual-001-1,59.955,?,1.0.0.485,1,1974451564,Professional,2.0.10.353,2.0.10.353,10/12/2017,12/10/2017 11:37,12:37:33,2.0.10.248,1,1,1,1,M1,List1,3,3,1,3,NULL,NULL,NULL,b1,BlockList1,4,32,2,4,w,NULL,NULL,NULL,NULL,NULL,NULL,NULL,NULL,NULL,TrialProc4,b1trails1,red,e,1,w,423
Individual,1,1,"<?xml version=""1.0""?>\n<Clock xmlns:dt=""urn:schemas-microsoft-com:datatypes""><Description dt:dt=""string"">E-Prime Primary Realtime Clock</Description><StartTime><Timestamp dt:dt=""int"">0</Timestamp><DateUtc dt:dt=""string"">2017-10-12T11:37:33Z</DateUtc></StartTime><FrequencyChanges><FrequencyChange><Frequency dt:dt=""r8"">2923154</Frequency><Timestamp dt:dt=""r8"">766478057744</Timestamp><Current dt:dt=""r8"">0</Current><DateUtc dt:dt=""string"">2017-10-12T11:37:33Z</DateUtc></FrequencyChange></FrequencyChanges></Clock>\n",Individual-001-1,59.955,?,1.0.0.485,1,1974451564,Professional,2.0.10.353,2.0.10.353,10/12/2017,12/10/2017 11:37,12:37:33,2.0.10.248,1,1,1,1,M1,List1,3,3,1,3,NULL,NULL,NULL,b1,BlockList1,5,94,2,5,e,NULL,NULL,NULL,NULL,NULL,NULL,NULL,NULL,NULL,TrialProc4,b1trails1,blue,w,1,e,1002
Individual,1,1,"<?xml version=""1.0""?>\n<Clock xmlns:dt=""urn:schemas-microsoft-com:datatypes""><Description dt:dt=""string"">E-Prime Primary Realtime Clock</Description><StartTime><Timestamp dt:dt=""int"">0</Timestamp><DateUtc dt:dt=""string"">2017-10-12T11:37:33Z</DateUtc></StartTime><FrequencyChanges><FrequencyChange><Frequency dt:dt=""r8"">2923154</Frequency><Timestamp dt:dt=""r8"">766478057744</Timestamp><Current dt:dt=""r8"">0</Current><DateUtc dt:dt=""string"">2017-10-12T11:37:33Z</DateUtc></FrequencyChange></FrequencyChanges></Clock>\n",Individual-001-1,59.955,?,1.0.0.485,1,1974451564,Professional,2.0.10.353,2.0.10.353,10/12/2017,12/10/2017 11:37,12:37:33,2.0.10.248,1,1,1,1,M1,List1,3,3,1,3,NULL,NULL,NULL,b1,BlockList1,6,40,2,6,w,NULL,NULL,NULL,NULL,NULL,NULL,NULL,NULL,NULL,TrialProc4,b1trails1,red,e,1,w,333
Individual,1,1,"<?xml version=""1.0""?>\n<Clock xmlns:dt=""urn:schemas-microsoft-com:datatypes""><Description dt:dt=""string"">E-Prime Primary Realtime Clock</Description><StartTime><Timestamp dt:dt=""int"">0</Timestamp><DateUtc dt:dt=""string"">2017-10-12T11:37:33Z</DateUtc></StartTime><FrequencyChanges><FrequencyChange><Frequency dt:dt=""r8"">2923154</Frequency><Timestamp dt:dt=""r8"">766478057744</Timestamp><Current dt:dt=""r8"">0</Current><DateUtc dt:dt=""string"">2017-10-12T11:37:33Z</DateUtc></FrequencyChange></FrequencyChanges></Clock>\n",Individual-001-1,59.955,?,1.0.0.485,1,1974451564,Professional,2.0.10.353,2.0.10.353,10/12/2017,12/10/2017 11:37,12:37:33,2.0.10.248,1,1,1,1,M1,List1,3,3,1,3,NULL,NULL,NULL,b1,BlockList1,7,46,2,7,e,NULL,NULL,NULL,NULL,NULL,NULL,NULL,NULL,NULL,TrialProc4,b1trails1,blue,w,1,e,442
Individual,1,1,"<?xml version=""1.0""?>\n<Clock xmlns:dt=""urn:schemas-microsoft-com:datatypes""><Description dt:dt=""string"">E-Prime Primary Realtime Clock</Description><StartTime><Timestamp dt:dt=""int"">0</Timestamp><DateUtc dt:dt=""string"">2017-10-12T11:37:33Z</DateUtc></StartTime><FrequencyChanges><FrequencyChange><Frequency dt:dt=""r8"">2923154</Frequency><Timestamp dt:dt=""r8"">766478057744</Timestamp><Current dt:dt=""r8"">0</Current><DateUtc dt:dt=""string"">2017-10-12T11:37:33Z</DateUtc></FrequencyChange></FrequencyChanges></Clock>\n",Individual-001-1,59.955,?,1.0.0.485,1,1974451564,Professional,2.0.10.353,2.0.10.353,10/12/2017,12/10/2017 11:37,12:37:33,2.0.10.248,1,1,1,1,M1,List1,3,3,1,3,NULL,NULL,NULL,b1,BlockList1,8,83,2,8,w,NULL,NULL,NULL,NULL,NULL,NULL,NULL,NULL,NULL,TrialProc4,b1trails1,red,w,1,w,537
Individual,1,1,"<?xml version=""1.0""?>\n<Clock xmlns:dt=""urn:schemas-microsoft-com:datatypes""><Description dt:dt=""string"">E-Prime Primary Realtime Clock</Description><StartTime><Timestamp dt:dt=""int"">0</Timestamp><DateUtc dt:dt=""string"">2017-10-12T11:37:33Z</DateUtc></StartTime><FrequencyChanges><FrequencyChange><Frequency dt:dt=""r8"">2923154</Frequency><Timestamp dt:dt=""r8"">766478057744</Timestamp><Current dt:dt=""r8"">0</Current><DateUtc dt:dt=""string"">2017-10-12T11:37:33Z</DateUtc></FrequencyChange></FrequencyChanges></Clock>\n",Individual-001-1,59.955,?,1.0.0.485,1,1974451564,Professional,2.0.10.353,2.0.10.353,10/12/2017,12/10/2017 11:37,12:37:33,2.0.10.248,1,1,1,1,M1,List1,3,3,1,3,NULL,NULL,NULL,b1,BlockList1,9,39,2,9,w,NULL,NULL,NULL,NULL,NULL,NULL,NULL,NULL,NULL,TrialProc4,b1trails1,red,w,1,w,348
Individual,1,1,"<?xml version=""1.0""?>\n<Clock xmlns:dt=""urn:schemas-microsoft-com:datatypes""><Description dt:dt=""string"">E-Prime Primary Realtime Clock</Description><StartTime><Timestamp dt:dt=""int"">0</Timestamp><DateUtc dt:dt=""string"">2017-10-12T11:37:33Z</DateUtc></StartTime><FrequencyChanges><FrequencyChange><Frequency dt:dt=""r8"">2923154</Frequency><Timestamp dt:dt=""r8"">766478057744</Timestamp><Current dt:dt=""r8"">0</Current><DateUtc dt:dt=""string"">2017-10-12T11:37:33Z</DateUtc></FrequencyChange></FrequencyChanges></Clock>\n",Individual-001-1,59.955,?,1.0.0.485,1,1974451564,Professional,2.0.10.353,2.0.10.353,10/12/2017,12/10/2017 11:37,12:37:33,2.0.10.248,1,1,1,1,M1,List1,3,3,1,3,NULL,NULL,NULL,b1,BlockList1,10,1,2,10,e,NULL,NULL,NULL,NULL,NULL,NULL,NULL,NULL,NULL,TrialProc4,b1trails1,blue,e,1,e,388
Individual,1,1,"<?xml version=""1.0""?>\n<Clock xmlns:dt=""urn:schemas-microsoft-com:datatypes""><Description dt:dt=""string"">E-Prime Primary Realtime Clock</Description><StartTime><Timestamp dt:dt=""int"">0</Timestamp><DateUtc dt:dt=""string"">2017-10-12T11:37:33Z</DateUtc></StartTime><FrequencyChanges><FrequencyChange><Frequency dt:dt=""r8"">2923154</Frequency><Timestamp dt:dt=""r8"">766478057744</Timestamp><Current dt:dt=""r8"">0</Current><DateUtc dt:dt=""string"">2017-10-12T11:37:33Z</DateUtc></FrequencyChange></FrequencyChanges></Clock>\n",Individual-001-1,59.955,?,1.0.0.485,1,1974451564,Professional,2.0.10.353,2.0.10.353,10/12/2017,12/10/2017 11:37,12:37:33,2.0.10.248,1,1,1,1,M1,List1,3,3,1,3,NULL,NULL,NULL,b1,BlockList1,11,47,2,11,w,NULL,NULL,NULL,NULL,NULL,NULL,NULL,NULL,NULL,TrialProc4,b1trails1,red,w,1,w,623
Individual,1,1,"<?xml version=""1.0""?>\n<Clock xmlns:dt=""urn:schemas-microsoft-com:datatypes""><Description dt:dt=""string"">E-Prime Primary Realtime Clock</Description><StartTime><Timestamp dt:dt=""int"">0</Timestamp><DateUtc dt:dt=""string"">2017-10-12T11:37:33Z</DateUtc></StartTime><FrequencyChanges><FrequencyChange><Frequency dt:dt=""r8"">2923154</Frequency><Timestamp dt:dt=""r8"">766478057744</Timestamp><Current dt:dt=""r8"">0</Current><DateUtc dt:dt=""string"">2017-10-12T11:37:33Z</DateUtc></FrequencyChange></FrequencyChanges></Clock>\n",Individual-001-1,59.955,?,1.0.0.485,1,1974451564,Professional,2.0.10.353,2.0.10.353,10/12/2017,12/10/2017 11:37,12:37:33,2.0.10.248,1,1,1,1,M1,List1,3,3,1,3,NULL,NULL,NULL,b1,BlockList1,12,7,2,12,w,NULL,NULL,NULL,NULL,NULL,NULL,NULL,NULL,NULL,TrialProc4,b1trails1,red,w,1,w,489
Individual,1,1,"<?xml version=""1.0""?>\n<Clock xmlns:dt=""urn:schemas-microsoft-com:datatypes""><Description dt:dt=""string"">E-Prime Primary Realtime Clock</Description><StartTime><Timestamp dt:dt=""int"">0</Timestamp><DateUtc dt:dt=""string"">2017-10-12T11:37:33Z</DateUtc></StartTime><FrequencyChanges><FrequencyChange><Frequency dt:dt=""r8"">2923154</Frequency><Timestamp dt:dt=""r8"">766478057744</Timestamp><Current dt:dt=""r8"">0</Current><DateUtc dt:dt=""string"">2017-10-12T11:37:33Z</DateUtc></FrequencyChange></FrequencyChanges></Clock>\n",Individual-001-1,59.955,?,1.0.0.485,1,1974451564,Professional,2.0.10.353,2.0.10.353,10/12/2017,12/10/2017 11:37,12:37:33,2.0.10.248,1,1,1,1,M1,List1,3,3,1,3,NULL,NULL,NULL,b1,BlockList1,13,56,2,13,w,NULL,NULL,NULL,NULL,NULL,NULL,NULL,NULL,NULL,TrialProc4,b1trails1,red,e,1,w,694
Individual,1,1,"<?xml version=""1.0""?>\n<Clock xmlns:dt=""urn:schemas-microsoft-com:datatypes""><Description dt:dt=""string"">E-Prime Primary Realtime Clock</Description><StartTime><Timestamp dt:dt=""int"">0</Timestamp><DateUtc dt:dt=""string"">2017-10-12T11:37:33Z</DateUtc></StartTime><FrequencyChanges><FrequencyChange><Frequency dt:dt=""r8"">2923154</Frequency><Timestamp dt:dt=""r8"">766478057744</Timestamp><Current dt:dt=""r8"">0</Current><DateUtc dt:dt=""string"">2017-10-12T11:37:33Z</DateUtc></FrequencyChange></FrequencyChanges></Clock>\n",Individual-001-1,59.955,?,1.0.0.485,1,1974451564,Professional,2.0.10.353,2.0.10.353,10/12/2017,12/10/2017 11:37,12:37:33,2.0.10.248,1,1,1,1,M1,List1,3,3,1,3,NULL,NULL,NULL,b1,BlockList1,14,60,2,14,w,NULL,NULL,NULL,NULL,NULL,NULL,NULL,NULL,NULL,TrialProc4,b1trails1,red,e,1,w,413
Individual,1,1,"<?xml version=""1.0""?>\n<Clock xmlns:dt=""urn:schemas-microsoft-com:datatypes""><Description dt:dt=""string"">E-Prime Primary Realtime Clock</Description><StartTime><Timestamp dt:dt=""int"">0</Timestamp><DateUtc dt:dt=""string"">2017-10-12T11:37:33Z</DateUtc></StartTime><FrequencyChanges><FrequencyChange><Frequency dt:dt=""r8"">2923154</Frequency><Timestamp dt:dt=""r8"">766478057744</Timestamp><Current dt:dt=""r8"">0</Current><DateUtc dt:dt=""string"">2017-10-12T11:37:33Z</DateUtc></FrequencyChange></FrequencyChanges></Clock>\n",Individual-001-1,59.955,?,1.0.0.485,1,1974451564,Professional,2.0.10.353,2.0.10.353,10/12/2017,12/10/2017 11:37,12:37:33,2.0.10.248,1,1,1,1,M1,List1,3,3,1,3,NULL,NULL,NULL,b1,BlockList1,15,24,2,15,w,NULL,NULL,NULL,NULL,NULL,NULL,NULL,NULL,NULL,TrialProc4,b1trails1,red,e,1,w,449
Individual,1,1,"<?xml version=""1.0""?>\n<Clock xmlns:dt=""urn:schemas-microsoft-com:datatypes""><Description dt:dt=""string"">E-Prime Primary Realtime Clock</Description><StartTime><Timestamp dt:dt=""int"">0</Timestamp><DateUtc dt:dt=""string"">2017-10-12T11:37:33Z</DateUtc></StartTime><FrequencyChanges><FrequencyChange><Frequency dt:dt=""r8"">2923154</Frequency><Timestamp dt:dt=""r8"">766478057744</Timestamp><Current dt:dt=""r8"">0</Current><DateUtc dt:dt=""string"">2017-10-12T11:37:33Z</DateUtc></FrequencyChange></FrequencyChanges></Clock>\n",Individual-001-1,59.955,?,1.0.0.485,1,1974451564,Professional,2.0.10.353,2.0.10.353,10/12/2017,12/10/2017 11:37,12:37:33,2.0.10.248,1,1,1,1,M1,List1,3,3,1,3,NULL,NULL,NULL,b1,BlockList1,16,66,2,16,e,NULL,NULL,NULL,NULL,NULL,NULL,NULL,NULL,NULL,TrialProc4,b1trails1,blue,w,1,e,509
Individual,1,1,"<?xml version=""1.0""?>\n<Clock xmlns:dt=""urn:schemas-microsoft-com:datatypes""><Description dt:dt=""string"">E-Prime Primary Realtime Clock</Description><StartTime><Timestamp dt:dt=""int"">0</Timestamp><DateUtc dt:dt=""string"">2017-10-12T11:37:33Z</DateUtc></StartTime><FrequencyChanges><FrequencyChange><Frequency dt:dt=""r8"">2923154</Frequency><Timestamp dt:dt=""r8"">766478057744</Timestamp><Current dt:dt=""r8"">0</Current><DateUtc dt:dt=""string"">2017-10-12T11:37:33Z</DateUtc></FrequencyChange></FrequencyChanges></Clock>\n",Individual-001-1,59.955,?,1.0.0.485,1,1974451564,Professional,2.0.10.353,2.0.10.353,10/12/2017,12/10/2017 11:37,12:37:33,2.0.10.248,1,1,1,1,M1,List1,3,3,1,3,NULL,NULL,NULL,b1,BlockList1,17,90,2,17,e,NULL,NULL,NULL,NULL,NULL,NULL,NULL,NULL,NULL,TrialProc4,b1trails1,blue,w,1,e,486
Individual,1,1,"<?xml version=""1.0""?>\n<Clock xmlns:dt=""urn:schemas-microsoft-com:datatypes""><Description dt:dt=""string"">E-Prime Primary Realtime Clock</Description><StartTime><Timestamp dt:dt=""int"">0</Timestamp><DateUtc dt:dt=""string"">2017-10-12T11:37:33Z</DateUtc></StartTime><FrequencyChanges><FrequencyChange><Frequency dt:dt=""r8"">2923154</Frequency><Timestamp dt:dt=""r8"">766478057744</Timestamp><Current dt:dt=""r8"">0</Current><DateUtc dt:dt=""string"">2017-10-12T11:37:33Z</DateUtc></FrequencyChange></FrequencyChanges></Clock>\n",Individual-001-1,59.955,?,1.0.0.485,1,1974451564,Professional,2.0.10.353,2.0.10.353,10/12/2017,12/10/2017 11:37,12:37:33,2.0.10.248,1,1,1,1,M1,List1,3,3,1,3,NULL,NULL,NULL,b1,BlockList1,18,85,2,18,e,NULL,NULL,NULL,NULL,NULL,NULL,NULL,NULL,NULL,TrialProc4,b1trails1,blue,e,1,e,371
Individual,1,1,"<?xml version=""1.0""?>\n<Clock xmlns:dt=""urn:schemas-microsoft-com:datatypes""><Description dt:dt=""string"">E-Prime Primary Realtime Clock</Description><StartTime><Timestamp dt:dt=""int"">0</Timestamp><DateUtc dt:dt=""string"">2017-10-12T11:37:33Z</DateUtc></StartTime><FrequencyChanges><FrequencyChange><Frequency dt:dt=""r8"">2923154</Frequency><Timestamp dt:dt=""r8"">766478057744</Timestamp><Current dt:dt=""r8"">0</Current><DateUtc dt:dt=""string"">2017-10-12T11:37:33Z</DateUtc></FrequencyChange></FrequencyChanges></Clock>\n",Individual-001-1,59.955,?,1.0.0.485,1,1974451564,Professional,2.0.10.353,2.0.10.353,10/12/2017,12/10/2017 11:37,12:37:33,2.0.10.248,1,1,1,1,M1,List1,3,3,1,3,NULL,NULL,NULL,b1,BlockList1,19,81,2,19,e,NULL,NULL,NULL,NULL,NULL,NULL,NULL,NULL,NULL,TrialProc4,b1trails1,blue,e,1,e,397
Individual,1,1,"<?xml version=""1.0""?>\n<Clock xmlns:dt=""urn:schemas-microsoft-com:datatypes""><Description dt:dt=""string"">E-Prime Primary Realtime Clock</Description><StartTime><Timestamp dt:dt=""int"">0</Timestamp><DateUtc dt:dt=""string"">2017-10-12T11:37:33Z</DateUtc></StartTime><FrequencyChanges><FrequencyChange><Frequency dt:dt=""r8"">2923154</Frequency><Timestamp dt:dt=""r8"">766478057744</Timestamp><Current dt:dt=""r8"">0</Current><DateUtc dt:dt=""string"">2017-10-12T11:37:33Z</DateUtc></FrequencyChange></FrequencyChanges></Clock>\n",Individual-001-1,59.955,?,1.0.0.485,1,1974451564,Professional,2.0.10.353,2.0.10.353,10/12/2017,12/10/2017 11:37,12:37:33,2.0.10.248,1,1,1,1,M1,List1,3,3,1,3,NULL,NULL,NULL,b1,BlockList1,20,96,2,20,w,NULL,NULL,NULL,NULL,NULL,NULL,NULL,NULL,NULL,TrialProc4,b1trails1,red,e,1,w,452
Individual,1,1,"<?xml version=""1.0""?>\n<Clock xmlns:dt=""urn:schemas-microsoft-com:datatypes""><Description dt:dt=""string"">E-Prime Primary Realtime Clock</Description><StartTime><Timestamp dt:dt=""int"">0</Timestamp><DateUtc dt:dt=""string"">2017-10-12T11:37:33Z</DateUtc></StartTime><FrequencyChanges><FrequencyChange><Frequency dt:dt=""r8"">2923154</Frequency><Timestamp dt:dt=""r8"">766478057744</Timestamp><Current dt:dt=""r8"">0</Current><DateUtc dt:dt=""string"">2017-10-12T11:37:33Z</DateUtc></FrequencyChange></FrequencyChanges></Clock>\n",Individual-001-1,59.955,?,1.0.0.485,1,1974451564,Professional,2.0.10.353,2.0.10.353,10/12/2017,12/10/2017 11:37,12:37:33,2.0.10.248,1,1,1,1,M1,List1,3,3,1,3,NULL,NULL,NULL,b1,BlockList1,21,13,2,21,e,NULL,NULL,NULL,NULL,NULL,NULL,NULL,NULL,NULL,TrialProc4,b1trails1,blue,e,1,e,421
Individual,1,1,"<?xml version=""1.0""?>\n<Clock xmlns:dt=""urn:schemas-microsoft-com:datatypes""><Description dt:dt=""string"">E-Prime Primary Realtime Clock</Description><StartTime><Timestamp dt:dt=""int"">0</Timestamp><DateUtc dt:dt=""string"">2017-10-12T11:37:33Z</DateUtc></StartTime><FrequencyChanges><FrequencyChange><Frequency dt:dt=""r8"">2923154</Frequency><Timestamp dt:dt=""r8"">766478057744</Timestamp><Current dt:dt=""r8"">0</Current><DateUtc dt:dt=""string"">2017-10-12T11:37:33Z</DateUtc></FrequencyChange></FrequencyChanges></Clock>\n",Individual-001-1,59.955,?,1.0.0.485,1,1974451564,Professional,2.0.10.353,2.0.10.353,10/12/2017,12/10/2017 11:37,12:37:33,2.0.10.248,1,1,1,1,M1,List1,3,3,1,3,NULL,NULL,NULL,b1,BlockList1,22,54,2,22,e,NULL,NULL,NULL,NULL,NULL,NULL,NULL,NULL,NULL,TrialProc4,b1trails1,blue,w,1,e,414
Individual,1,1,"<?xml version=""1.0""?>\n<Clock xmlns:dt=""urn:schemas-microsoft-com:datatypes""><Description dt:dt=""string"">E-Prime Primary Realtime Clock</Description><StartTime><Timestamp dt:dt=""int"">0</Timestamp><DateUtc dt:dt=""string"">2017-10-12T11:37:33Z</DateUtc></StartTime><FrequencyChanges><FrequencyChange><Frequency dt:dt=""r8"">2923154</Frequency><Timestamp dt:dt=""r8"">766478057744</Timestamp><Current dt:dt=""r8"">0</Current><DateUtc dt:dt=""string"">2017-10-12T11:37:33Z</DateUtc></FrequencyChange></FrequencyChanges></Clock>\n",Individual-001-1,59.955,?,1.0.0.485,1,1974451564,Professional,2.0.10.353,2.0.10.353,10/12/2017,12/10/2017 11:37,12:37:33,2.0.10.248,1,1,1,1,M1,List1,3,3,1,3,NULL,NULL,NULL,b1,BlockList1,23,59,2,23,w,NULL,NULL,NULL,NULL,NULL,NULL,NULL,NULL,NULL,TrialProc4,b1trails1,red,w,1,w,515
Individual,1,1,"<?xml version=""1.0""?>\n<Clock xmlns:dt=""urn:schemas-microsoft-com:datatypes""><Description dt:dt=""string"">E-Prime Primary Realtime Clock</Description><StartTime><Timestamp dt:dt=""int"">0</Timestamp><DateUtc dt:dt=""string"">2017-10-12T11:37:33Z</DateUtc></StartTime><FrequencyChanges><FrequencyChange><Frequency dt:dt=""r8"">2923154</Frequency><Timestamp dt:dt=""r8"">766478057744</Timestamp><Current dt:dt=""r8"">0</Current><DateUtc dt:dt=""string"">2017-10-12T11:37:33Z</DateUtc></FrequencyChange></FrequencyChanges></Clock>\n",Individual-001-1,59.955,?,1.0.0.485,1,1974451564,Professional,2.0.10.353,2.0.10.353,10/12/2017,12/10/2017 11:37,12:37:33,2.0.10.248,1,1,1,1,M1,List1,3,3,1,3,NULL,NULL,NULL,b1,BlockList1,24,95,2,24,w,NULL,NULL,NULL,NULL,NULL,NULL,NULL,NULL,NULL,TrialProc4,b1trails1,red,w,1,w,447
Individual,1,1,"<?xml version=""1.0""?>\n<Clock xmlns:dt=""urn:schemas-microsoft-com:datatypes""><Description dt:dt=""string"">E-Prime Primary Realtime Clock</Description><StartTime><Timestamp dt:dt=""int"">0</Timestamp><DateUtc dt:dt=""string"">2017-10-12T11:37:33Z</DateUtc></StartTime><FrequencyChanges><FrequencyChange><Frequency dt:dt=""r8"">2923154</Frequency><Timestamp dt:dt=""r8"">766478057744</Timestamp><Current dt:dt=""r8"">0</Current><DateUtc dt:dt=""string"">2017-10-12T11:37:33Z</DateUtc></FrequencyChange></FrequencyChanges></Clock>\n",Individual-001-1,59.955,?,1.0.0.485,1,1974451564,Professional,2.0.10.353,2.0.10.353,10/12/2017,12/10/2017 11:37,12:37:33,2.0.10.248,1,1,1,1,M1,List1,3,3,1,3,NULL,NULL,NULL,b1,BlockList1,25,44,2,25,w,NULL,NULL,NULL,NULL,NULL,NULL,NULL,NULL,NULL,TrialProc4,b1trails1,red,e,1,w,450
Individual,1,1,"<?xml version=""1.0""?>\n<Clock xmlns:dt=""urn:schemas-microsoft-com:datatypes""><Description dt:dt=""string"">E-Prime Primary Realtime Clock</Description><StartTime><Timestamp dt:dt=""int"">0</Timestamp><DateUtc dt:dt=""string"">2017-10-12T11:37:33Z</DateUtc></StartTime><FrequencyChanges><FrequencyChange><Frequency dt:dt=""r8"">2923154</Frequency><Timestamp dt:dt=""r8"">766478057744</Timestamp><Current dt:dt=""r8"">0</Current><DateUtc dt:dt=""string"">2017-10-12T11:37:33Z</DateUtc></FrequencyChange></FrequencyChanges></Clock>\n",Individual-001-1,59.955,?,1.0.0.485,1,1974451564,Professional,2.0.10.353,2.0.10.353,10/12/2017,12/10/2017 11:37,12:37:33,2.0.10.248,1,1,1,1,M1,List1,3,3,1,3,NULL,NULL,NULL,b1,BlockList1,26,92,2,26,w,NULL,NULL,NULL,NULL,NULL,NULL,NULL,NULL,NULL,TrialProc4,b1trails1,red,e,1,w,472
Individual,1,1,"<?xml version=""1.0""?>\n<Clock xmlns:dt=""urn:schemas-microsoft-com:datatypes""><Description dt:dt=""string"">E-Prime Primary Realtime Clock</Description><StartTime><Timestamp dt:dt=""int"">0</Timestamp><DateUtc dt:dt=""string"">2017-10-12T11:37:33Z</DateUtc></StartTime><FrequencyChanges><FrequencyChange><Frequency dt:dt=""r8"">2923154</Frequency><Timestamp dt:dt=""r8"">766478057744</Timestamp><Current dt:dt=""r8"">0</Current><DateUtc dt:dt=""string"">2017-10-12T11:37:33Z</DateUtc></FrequencyChange></FrequencyChanges></Clock>\n",Individual-001-1,59.955,?,1.0.0.485,1,1974451564,Professional,2.0.10.353,2.0.10.353,10/12/2017,12/10/2017 11:37,12:37:33,2.0.10.248,1,1,1,1,M1,List1,3,3,1,3,NULL,NULL,NULL,b1,BlockList1,27,34,2,27,e,NULL,NULL,NULL,NULL,NULL,NULL,NULL,NULL,NULL,TrialProc4,b1trails1,blue,w,1,e,732
Individual,1,1,"<?xml version=""1.0""?>\n<Clock xmlns:dt=""urn:schemas-microsoft-com:datatypes""><Description dt:dt=""string"">E-Prime Primary Realtime Clock</Description><StartTime><Timestamp dt:dt=""int"">0</Timestamp><DateUtc dt:dt=""string"">2017-10-12T11:37:33Z</DateUtc></StartTime><FrequencyChanges><FrequencyChange><Frequency dt:dt=""r8"">2923154</Frequency><Timestamp dt:dt=""r8"">766478057744</Timestamp><Current dt:dt=""r8"">0</Current><DateUtc dt:dt=""string"">2017-10-12T11:37:33Z</DateUtc></FrequencyChange></FrequencyChanges></Clock>\n",Individual-001-1,59.955,?,1.0.0.485,1,1974451564,Professional,2.0.10.353,2.0.10.353,10/12/2017,12/10/2017 11:37,12:37:33,2.0.10.248,1,1,1,1,M1,List1,3,3,1,3,NULL,NULL,NULL,b1,BlockList1,28,48,2,28,w,NULL,NULL,NULL,NULL,NULL,NULL,NULL,NULL,NULL,TrialProc4,b1trails1,red,e,1,w,654
Individual,1,1,"<?xml version=""1.0""?>\n<Clock xmlns:dt=""urn:schemas-microsoft-com:datatypes""><Description dt:dt=""string"">E-Prime Primary Realtime Clock</Description><StartTime><Timestamp dt:dt=""int"">0</Timestamp><DateUtc dt:dt=""string"">2017-10-12T11:37:33Z</DateUtc></StartTime><FrequencyChanges><FrequencyChange><Frequency dt:dt=""r8"">2923154</Frequency><Timestamp dt:dt=""r8"">766478057744</Timestamp><Current dt:dt=""r8"">0</Current><DateUtc dt:dt=""string"">2017-10-12T11:37:33Z</DateUtc></FrequencyChange></FrequencyChanges></Clock>\n",Individual-001-1,59.955,?,1.0.0.485,1,1974451564,Professional,2.0.10.353,2.0.10.353,10/12/2017,12/10/2017 11:37,12:37:33,2.0.10.248,1,1,1,1,M1,List1,3,3,1,3,NULL,NULL,NULL,b1,BlockList1,29,23,2,29,w,NULL,NULL,NULL,NULL,NULL,NULL,NULL,NULL,NULL,TrialProc4,b1trails1,red,w,1,w,756
Individual,1,1,"<?xml version=""1.0""?>\n<Clock xmlns:dt=""urn:schemas-microsoft-com:datatypes""><Description dt:dt=""string"">E-Prime Primary Realtime Clock</Description><StartTime><Timestamp dt:dt=""int"">0</Timestamp><DateUtc dt:dt=""string"">2017-10-12T11:37:33Z</DateUtc></StartTime><FrequencyChanges><FrequencyChange><Frequency dt:dt=""r8"">2923154</Frequency><Timestamp dt:dt=""r8"">766478057744</Timestamp><Current dt:dt=""r8"">0</Current><DateUtc dt:dt=""string"">2017-10-12T11:37:33Z</DateUtc></FrequencyChange></FrequencyChanges></Clock>\n",Individual-001-1,59.955,?,1.0.0.485,1,1974451564,Professional,2.0.10.353,2.0.10.353,10/12/2017,12/10/2017 11:37,12:37:33,2.0.10.248,1,1,1,1,M1,List1,3,3,1,3,NULL,NULL,NULL,b1,BlockList1,30,51,2,30,w,NULL,NULL,NULL,NULL,NULL,NULL,NULL,NULL,NULL,TrialProc4,b1trails1,red,w,1,w,397
Individual,1,1,"<?xml version=""1.0""?>\n<Clock xmlns:dt=""urn:schemas-microsoft-com:datatypes""><Description dt:dt=""string"">E-Prime Primary Realtime Clock</Description><StartTime><Timestamp dt:dt=""int"">0</Timestamp><DateUtc dt:dt=""string"">2017-10-12T11:37:33Z</DateUtc></StartTime><FrequencyChanges><FrequencyChange><Frequency dt:dt=""r8"">2923154</Frequency><Timestamp dt:dt=""r8"">766478057744</Timestamp><Current dt:dt=""r8"">0</Current><DateUtc dt:dt=""string"">2017-10-12T11:37:33Z</DateUtc></FrequencyChange></FrequencyChanges></Clock>\n",Individual-001-1,59.955,?,1.0.0.485,1,1974451564,Professional,2.0.10.353,2.0.10.353,10/12/2017,12/10/2017 11:37,12:37:33,2.0.10.248,1,1,1,1,M1,List1,3,3,1,3,NULL,NULL,NULL,b1,BlockList1,31,91,2,31,w,NULL,NULL,NULL,NULL,NULL,NULL,NULL,NULL,NULL,TrialProc4,b1trails1,red,w,1,w,506
Individual,1,1,"<?xml version=""1.0""?>\n<Clock xmlns:dt=""urn:schemas-microsoft-com:datatypes""><Description dt:dt=""string"">E-Prime Primary Realtime Clock</Description><StartTime><Timestamp dt:dt=""int"">0</Timestamp><DateUtc dt:dt=""string"">2017-10-12T11:37:33Z</DateUtc></StartTime><FrequencyChanges><FrequencyChange><Frequency dt:dt=""r8"">2923154</Frequency><Timestamp dt:dt=""r8"">766478057744</Timestamp><Current dt:dt=""r8"">0</Current><DateUtc dt:dt=""string"">2017-10-12T11:37:33Z</DateUtc></FrequencyChange></FrequencyChanges></Clock>\n",Individual-001-1,59.955,?,1.0.0.485,1,1974451564,Professional,2.0.10.353,2.0.10.353,10/12/2017,12/10/2017 11:37,12:37:33,2.0.10.248,1,1,1,1,M1,List1,3,3,1,3,NULL,NULL,NULL,b1,BlockList1,32,57,2,32,e,NULL,NULL,NULL,NULL,NULL,NULL,NULL,NULL,NULL,TrialProc4,b1trails1,blue,e,1,e,555
Individual,1,1,"<?xml version=""1.0""?>\n<Clock xmlns:dt=""urn:schemas-microsoft-com:datatypes""><Description dt:dt=""string"">E-Prime Primary Realtime Clock</Description><StartTime><Timestamp dt:dt=""int"">0</Timestamp><DateUtc dt:dt=""string"">2017-10-12T11:37:33Z</DateUtc></StartTime><FrequencyChanges><FrequencyChange><Frequency dt:dt=""r8"">2923154</Frequency><Timestamp dt:dt=""r8"">766478057744</Timestamp><Current dt:dt=""r8"">0</Current><DateUtc dt:dt=""string"">2017-10-12T11:37:33Z</DateUtc></FrequencyChange></FrequencyChanges></Clock>\n",Individual-001-1,59.955,?,1.0.0.485,1,1974451564,Professional,2.0.10.353,2.0.10.353,10/12/2017,12/10/2017 11:37,12:37:33,2.0.10.248,1,1,1,1,M1,List1,3,3,1,3,NULL,NULL,NULL,b1,BlockList1,33,11,2,33,w,NULL,NULL,NULL,NULL,NULL,NULL,NULL,NULL,NULL,TrialProc4,b1trails1,red,w,1,w,455
Individual,1,1,"<?xml version=""1.0""?>\n<Clock xmlns:dt=""urn:schemas-microsoft-com:datatypes""><Description dt:dt=""string"">E-Prime Primary Realtime Clock</Description><StartTime><Timestamp dt:dt=""int"">0</Timestamp><DateUtc dt:dt=""string"">2017-10-12T11:37:33Z</DateUtc></StartTime><FrequencyChanges><FrequencyChange><Frequency dt:dt=""r8"">2923154</Frequency><Timestamp dt:dt=""r8"">766478057744</Timestamp><Current dt:dt=""r8"">0</Current><DateUtc dt:dt=""string"">2017-10-12T11:37:33Z</DateUtc></FrequencyChange></FrequencyChanges></Clock>\n",Individual-001-1,59.955,?,1.0.0.485,1,1974451564,Professional,2.0.10.353,2.0.10.353,10/12/2017,12/10/2017 11:37,12:37:33,2.0.10.248,1,1,1,1,M1,List1,3,3,1,3,NULL,NULL,NULL,b1,BlockList1,34,10,2,34,e,NULL,NULL,NULL,NULL,NULL,NULL,NULL,NULL,NULL,TrialProc4,b1trails1,blue,w,1,e,570
Individual,1,1,"<?xml version=""1.0""?>\n<Clock xmlns:dt=""urn:schemas-microsoft-com:datatypes""><Description dt:dt=""string"">E-Prime Primary Realtime Clock</Description><StartTime><Timestamp dt:dt=""int"">0</Timestamp><DateUtc dt:dt=""string"">2017-10-12T11:37:33Z</DateUtc></StartTime><FrequencyChanges><FrequencyChange><Frequency dt:dt=""r8"">2923154</Frequency><Timestamp dt:dt=""r8"">766478057744</Timestamp><Current dt:dt=""r8"">0</Current><DateUtc dt:dt=""string"">2017-10-12T11:37:33Z</DateUtc></FrequencyChange></FrequencyChanges></Clock>\n",Individual-001-1,59.955,?,1.0.0.485,1,1974451564,Professional,2.0.10.353,2.0.10.353,10/12/2017,12/10/2017 11:37,12:37:33,2.0.10.248,1,1,1,1,M1,List1,3,3,1,3,NULL,NULL,NULL,b1,BlockList1,35,37,2,35,e,NULL,NULL,NULL,NULL,NULL,NULL,NULL,NULL,NULL,TrialProc4,b1trails1,blue,e,1,e,406
Individual,1,1,"<?xml version=""1.0""?>\n<Clock xmlns:dt=""urn:schemas-microsoft-com:datatypes""><Description dt:dt=""string"">E-Prime Primary Realtime Clock</Description><StartTime><Timestamp dt:dt=""int"">0</Timestamp><DateUtc dt:dt=""string"">2017-10-12T11:37:33Z</DateUtc></StartTime><FrequencyChanges><FrequencyChange><Frequency dt:dt=""r8"">2923154</Frequency><Timestamp dt:dt=""r8"">766478057744</Timestamp><Current dt:dt=""r8"">0</Current><DateUtc dt:dt=""string"">2017-10-12T11:37:33Z</DateUtc></FrequencyChange></FrequencyChanges></Clock>\n",Individual-001-1,59.955,?,1.0.0.485,1,1974451564,Professional,2.0.10.353,2.0.10.353,10/12/2017,12/10/2017 11:37,12:37:33,2.0.10.248,1,1,1,1,M1,List1,3,3,1,3,NULL,NULL,NULL,b1,BlockList1,36,27,2,36,w,NULL,NULL,NULL,NULL,NULL,NULL,NULL,NULL,NULL,TrialProc4,b1trails1,red,w,1,w,385
Individual,1,1,"<?xml version=""1.0""?>\n<Clock xmlns:dt=""urn:schemas-microsoft-com:datatypes""><Description dt:dt=""string"">E-Prime Primary Realtime Clock</Description><StartTime><Timestamp dt:dt=""int"">0</Timestamp><DateUtc dt:dt=""string"">2017-10-12T11:37:33Z</DateUtc></StartTime><FrequencyChanges><FrequencyChange><Frequency dt:dt=""r8"">2923154</Frequency><Timestamp dt:dt=""r8"">766478057744</Timestamp><Current dt:dt=""r8"">0</Current><DateUtc dt:dt=""string"">2017-10-12T11:37:33Z</DateUtc></FrequencyChange></FrequencyChanges></Clock>\n",Individual-001-1,59.955,?,1.0.0.485,1,1974451564,Professional,2.0.10.353,2.0.10.353,10/12/2017,12/10/2017 11:37,12:37:33,2.0.10.248,1,1,1,1,M1,List1,3,3,1,3,NULL,NULL,NULL,b1,BlockList1,37,21,2,37,e,NULL,NULL,NULL,NULL,NULL,NULL,NULL,NULL,NULL,TrialProc4,b1trails1,blue,e,1,e,654
Individual,1,1,"<?xml version=""1.0""?>\n<Clock xmlns:dt=""urn:schemas-microsoft-com:datatypes""><Description dt:dt=""string"">E-Prime Primary Realtime Clock</Description><StartTime><Timestamp dt:dt=""int"">0</Timestamp><DateUtc dt:dt=""string"">2017-10-12T11:37:33Z</DateUtc></StartTime><FrequencyChanges><FrequencyChange><Frequency dt:dt=""r8"">2923154</Frequency><Timestamp dt:dt=""r8"">766478057744</Timestamp><Current dt:dt=""r8"">0</Current><DateUtc dt:dt=""string"">2017-10-12T11:37:33Z</DateUtc></FrequencyChange></FrequencyChanges></Clock>\n",Individual-001-1,59.955,?,1.0.0.485,1,1974451564,Professional,2.0.10.353,2.0.10.353,10/12/2017,12/10/2017 11:37,12:37:33,2.0.10.248,1,1,1,1,M1,List1,3,3,1,3,NULL,NULL,NULL,b1,BlockList1,38,78,2,38,e,NULL,NULL,NULL,NULL,NULL,NULL,NULL,NULL,NULL,TrialProc4,b1trails1,blue,w,1,e,499
Individual,1,1,"<?xml version=""1.0""?>\n<Clock xmlns:dt=""urn:schemas-microsoft-com:datatypes""><Description dt:dt=""string"">E-Prime Primary Realtime Clock</Description><StartTime><Timestamp dt:dt=""int"">0</Timestamp><DateUtc dt:dt=""string"">2017-10-12T11:37:33Z</DateUtc></StartTime><FrequencyChanges><FrequencyChange><Frequency dt:dt=""r8"">2923154</Frequency><Timestamp dt:dt=""r8"">766478057744</Timestamp><Current dt:dt=""r8"">0</Current><DateUtc dt:dt=""string"">2017-10-12T11:37:33Z</DateUtc></FrequencyChange></FrequencyChanges></Clock>\n",Individual-001-1,59.955,?,1.0.0.485,1,1974451564,Professional,2.0.10.353,2.0.10.353,10/12/2017,12/10/2017 11:37,12:37:33,2.0.10.248,1,1,1,1,M1,List1,3,3,1,3,NULL,NULL,NULL,b1,BlockList1,39,50,2,39,e,NULL,NULL,NULL,NULL,NULL,NULL,NULL,NULL,NULL,TrialProc4,b1trails1,blue,w,1,e,576
Individual,1,1,"<?xml version=""1.0""?>\n<Clock xmlns:dt=""urn:schemas-microsoft-com:datatypes""><Description dt:dt=""string"">E-Prime Primary Realtime Clock</Description><StartTime><Timestamp dt:dt=""int"">0</Timestamp><DateUtc dt:dt=""string"">2017-10-12T11:37:33Z</DateUtc></StartTime><FrequencyChanges><FrequencyChange><Frequency dt:dt=""r8"">2923154</Frequency><Timestamp dt:dt=""r8"">766478057744</Timestamp><Current dt:dt=""r8"">0</Current><DateUtc dt:dt=""string"">2017-10-12T11:37:33Z</DateUtc></FrequencyChange></FrequencyChanges></Clock>\n",Individual-001-1,59.955,?,1.0.0.485,1,1974451564,Professional,2.0.10.353,2.0.10.353,10/12/2017,12/10/2017 11:37,12:37:33,2.0.10.248,1,1,1,1,M1,List1,3,3,1,3,NULL,NULL,NULL,b1,BlockList1,40,70,2,40,e,NULL,NULL,NULL,NULL,NULL,NULL,NULL,NULL,NULL,TrialProc4,b1trails1,blue,w,1,e,395
Individual,1,1,"<?xml version=""1.0""?>\n<Clock xmlns:dt=""urn:schemas-microsoft-com:datatypes""><Description dt:dt=""string"">E-Prime Primary Realtime Clock</Description><StartTime><Timestamp dt:dt=""int"">0</Timestamp><DateUtc dt:dt=""string"">2017-10-12T11:37:33Z</DateUtc></StartTime><FrequencyChanges><FrequencyChange><Frequency dt:dt=""r8"">2923154</Frequency><Timestamp dt:dt=""r8"">766478057744</Timestamp><Current dt:dt=""r8"">0</Current><DateUtc dt:dt=""string"">2017-10-12T11:37:33Z</DateUtc></FrequencyChange></FrequencyChanges></Clock>\n",Individual-001-1,59.955,?,1.0.0.485,1,1974451564,Professional,2.0.10.353,2.0.10.353,10/12/2017,12/10/2017 11:37,12:37:33,2.0.10.248,1,1,1,1,M1,List1,3,3,1,3,NULL,NULL,NULL,b1,BlockList1,41,62,2,41,e,NULL,NULL,NULL,NULL,NULL,NULL,NULL,NULL,NULL,TrialProc4,b1trails1,blue,w,1,e,402
Individual,1,1,"<?xml version=""1.0""?>\n<Clock xmlns:dt=""urn:schemas-microsoft-com:datatypes""><Description dt:dt=""string"">E-Prime Primary Realtime Clock</Description><StartTime><Timestamp dt:dt=""int"">0</Timestamp><DateUtc dt:dt=""string"">2017-10-12T11:37:33Z</DateUtc></StartTime><FrequencyChanges><FrequencyChange><Frequency dt:dt=""r8"">2923154</Frequency><Timestamp dt:dt=""r8"">766478057744</Timestamp><Current dt:dt=""r8"">0</Current><DateUtc dt:dt=""string"">2017-10-12T11:37:33Z</DateUtc></FrequencyChange></FrequencyChanges></Clock>\n",Individual-001-1,59.955,?,1.0.0.485,1,1974451564,Professional,2.0.10.353,2.0.10.353,10/12/2017,12/10/2017 11:37,12:37:33,2.0.10.248,1,1,1,1,M1,List1,3,3,1,3,NULL,NULL,NULL,b1,BlockList1,42,9,2,42,e,NULL,NULL,NULL,NULL,NULL,NULL,NULL,NULL,NULL,TrialProc4,b1trails1,blue,e,1,e,370
Individual,1,1,"<?xml version=""1.0""?>\n<Clock xmlns:dt=""urn:schemas-microsoft-com:datatypes""><Description dt:dt=""string"">E-Prime Primary Realtime Clock</Description><StartTime><Timestamp dt:dt=""int"">0</Timestamp><DateUtc dt:dt=""string"">2017-10-12T11:37:33Z</DateUtc></StartTime><FrequencyChanges><FrequencyChange><Frequency dt:dt=""r8"">2923154</Frequency><Timestamp dt:dt=""r8"">766478057744</Timestamp><Current dt:dt=""r8"">0</Current><DateUtc dt:dt=""string"">2017-10-12T11:37:33Z</DateUtc></FrequencyChange></FrequencyChanges></Clock>\n",Individual-001-1,59.955,?,1.0.0.485,1,1974451564,Professional,2.0.10.353,2.0.10.353,10/12/2017,12/10/2017 11:37,12:37:33,2.0.10.248,1,1,1,1,M1,List1,3,3,1,3,NULL,NULL,NULL,b1,BlockList1,43,3,2,43,w,NULL,NULL,NULL,NULL,NULL,NULL,NULL,NULL,NULL,TrialProc4,b1trails1,red,w,1,w,571
Individual,1,1,"<?xml version=""1.0""?>\n<Clock xmlns:dt=""urn:schemas-microsoft-com:datatypes""><Description dt:dt=""string"">E-Prime Primary Realtime Clock</Description><StartTime><Timestamp dt:dt=""int"">0</Timestamp><DateUtc dt:dt=""string"">2017-10-12T11:37:33Z</DateUtc></StartTime><FrequencyChanges><FrequencyChange><Frequency dt:dt=""r8"">2923154</Frequency><Timestamp dt:dt=""r8"">766478057744</Timestamp><Current dt:dt=""r8"">0</Current><DateUtc dt:dt=""string"">2017-10-12T11:37:33Z</DateUtc></FrequencyChange></FrequencyChanges></Clock>\n",Individual-001-1,59.955,?,1.0.0.485,1,1974451564,Professional,2.0.10.353,2.0.10.353,10/12/2017,12/10/2017 11:37,12:37:33,2.0.10.248,1,1,1,1,M1,List1,3,3,1,3,NULL,NULL,NULL,b1,BlockList1,44,38,2,44,e,NULL,NULL,NULL,NULL,NULL,NULL,NULL,NULL,NULL,TrialProc4,b1trails1,blue,w,1,e,430
Individual,1,1,"<?xml version=""1.0""?>\n<Clock xmlns:dt=""urn:schemas-microsoft-com:datatypes""><Description dt:dt=""string"">E-Prime Primary Realtime Clock</Description><StartTime><Timestamp dt:dt=""int"">0</Timestamp><DateUtc dt:dt=""string"">2017-10-12T11:37:33Z</DateUtc></StartTime><FrequencyChanges><FrequencyChange><Frequency dt:dt=""r8"">2923154</Frequency><Timestamp dt:dt=""r8"">766478057744</Timestamp><Current dt:dt=""r8"">0</Current><DateUtc dt:dt=""string"">2017-10-12T11:37:33Z</DateUtc></FrequencyChange></FrequencyChanges></Clock>\n",Individual-001-1,59.955,?,1.0.0.485,1,1974451564,Professional,2.0.10.353,2.0.10.353,10/12/2017,12/10/2017 11:37,12:37:33,2.0.10.248,1,1,1,1,M1,List1,3,3,1,3,NULL,NULL,NULL,b1,BlockList1,45,65,2,45,e,NULL,NULL,NULL,NULL,NULL,NULL,NULL,NULL,NULL,TrialProc4,b1trails1,blue,e,1,e,314
Individual,1,1,"<?xml version=""1.0""?>\n<Clock xmlns:dt=""urn:schemas-microsoft-com:datatypes""><Description dt:dt=""string"">E-Prime Primary Realtime Clock</Description><StartTime><Timestamp dt:dt=""int"">0</Timestamp><DateUtc dt:dt=""string"">2017-10-12T11:37:33Z</DateUtc></StartTime><FrequencyChanges><FrequencyChange><Frequency dt:dt=""r8"">2923154</Frequency><Timestamp dt:dt=""r8"">766478057744</Timestamp><Current dt:dt=""r8"">0</Current><DateUtc dt:dt=""string"">2017-10-12T11:37:33Z</DateUtc></FrequencyChange></FrequencyChanges></Clock>\n",Individual-001-1,59.955,?,1.0.0.485,1,1974451564,Professional,2.0.10.353,2.0.10.353,10/12/2017,12/10/2017 11:37,12:37:33,2.0.10.248,1,1,1,1,M1,List1,3,3,1,3,NULL,NULL,NULL,b1,BlockList1,46,67,2,46,w,NULL,NULL,NULL,NULL,NULL,NULL,NULL,NULL,NULL,TrialProc4,b1trails1,red,w,1,w,434
Individual,1,1,"<?xml version=""1.0""?>\n<Clock xmlns:dt=""urn:schemas-microsoft-com:datatypes""><Description dt:dt=""string"">E-Prime Primary Realtime Clock</Description><StartTime><Timestamp dt:dt=""int"">0</Timestamp><DateUtc dt:dt=""string"">2017-10-12T11:37:33Z</DateUtc></StartTime><FrequencyChanges><FrequencyChange><Frequency dt:dt=""r8"">2923154</Frequency><Timestamp dt:dt=""r8"">766478057744</Timestamp><Current dt:dt=""r8"">0</Current><DateUtc dt:dt=""string"">2017-10-12T11:37:33Z</DateUtc></FrequencyChange></FrequencyChanges></Clock>\n",Individual-001-1,59.955,?,1.0.0.485,1,1974451564,Professional,2.0.10.353,2.0.10.353,10/12/2017,12/10/2017 11:37,12:37:33,2.0.10.248,1,1,1,1,M1,List1,3,3,1,3,NULL,NULL,NULL,b1,BlockList1,47,20,2,47,w,NULL,NULL,NULL,NULL,NULL,NULL,NULL,NULL,NULL,TrialProc4,b1trails1,red,e,1,w,542
Individual,1,1,"<?xml version=""1.0""?>\n<Clock xmlns:dt=""urn:schemas-microsoft-com:datatypes""><Description dt:dt=""string"">E-Prime Primary Realtime Clock</Description><StartTime><Timestamp dt:dt=""int"">0</Timestamp><DateUtc dt:dt=""string"">2017-10-12T11:37:33Z</DateUtc></StartTime><FrequencyChanges><FrequencyChange><Frequency dt:dt=""r8"">2923154</Frequency><Timestamp dt:dt=""r8"">766478057744</Timestamp><Current dt:dt=""r8"">0</Current><DateUtc dt:dt=""string"">2017-10-12T11:37:33Z</DateUtc></FrequencyChange></FrequencyChanges></Clock>\n",Individual-001-1,59.955,?,1.0.0.485,1,1974451564,Professional,2.0.10.353,2.0.10.353,10/12/2017,12/10/2017 11:37,12:37:33,2.0.10.248,1,1,1,1,M1,List1,3,3,1,3,NULL,NULL,NULL,b1,BlockList1,48,89,2,48,e,NULL,NULL,NULL,NULL,NULL,NULL,NULL,NULL,NULL,TrialProc4,b1trails1,blue,e,1,e,375
Individual,1,1,"<?xml version=""1.0""?>\n<Clock xmlns:dt=""urn:schemas-microsoft-com:datatypes""><Description dt:dt=""string"">E-Prime Primary Realtime Clock</Description><StartTime><Timestamp dt:dt=""int"">0</Timestamp><DateUtc dt:dt=""string"">2017-10-12T11:37:33Z</DateUtc></StartTime><FrequencyChanges><FrequencyChange><Frequency dt:dt=""r8"">2923154</Frequency><Timestamp dt:dt=""r8"">766478057744</Timestamp><Current dt:dt=""r8"">0</Current><DateUtc dt:dt=""string"">2017-10-12T11:37:33Z</DateUtc></FrequencyChange></FrequencyChanges></Clock>\n",Individual-001-1,59.955,?,1.0.0.485,1,1974451564,Professional,2.0.10.353,2.0.10.353,10/12/2017,12/10/2017 11:37,12:37:33,2.0.10.248,1,1,1,1,M1,List1,3,3,1,3,NULL,NULL,NULL,b1,BlockList1,49,41,2,49,e,NULL,NULL,NULL,NULL,NULL,NULL,NULL,NULL,NULL,TrialProc4,b1trails1,blue,e,1,e,1078
Individual,1,1,"<?xml version=""1.0""?>\n<Clock xmlns:dt=""urn:schemas-microsoft-com:datatypes""><Description dt:dt=""string"">E-Prime Primary Realtime Clock</Description><StartTime><Timestamp dt:dt=""int"">0</Timestamp><DateUtc dt:dt=""string"">2017-10-12T11:37:33Z</DateUtc></StartTime><FrequencyChanges><FrequencyChange><Frequency dt:dt=""r8"">2923154</Frequency><Timestamp dt:dt=""r8"">766478057744</Timestamp><Current dt:dt=""r8"">0</Current><DateUtc dt:dt=""string"">2017-10-12T11:37:33Z</DateUtc></FrequencyChange></FrequencyChanges></Clock>\n",Individual-001-1,59.955,?,1.0.0.485,1,1974451564,Professional,2.0.10.353,2.0.10.353,10/12/2017,12/10/2017 11:37,12:37:33,2.0.10.248,1,1,1,1,M1,List1,3,3,1,3,NULL,NULL,NULL,b1,BlockList1,50,79,2,50,w,NULL,NULL,NULL,NULL,NULL,NULL,NULL,NULL,NULL,TrialProc4,b1trails1,red,w,1,w,305
Individual,1,1,"<?xml version=""1.0""?>\n<Clock xmlns:dt=""urn:schemas-microsoft-com:datatypes""><Description dt:dt=""string"">E-Prime Primary Realtime Clock</Description><StartTime><Timestamp dt:dt=""int"">0</Timestamp><DateUtc dt:dt=""string"">2017-10-12T11:37:33Z</DateUtc></StartTime><FrequencyChanges><FrequencyChange><Frequency dt:dt=""r8"">2923154</Frequency><Timestamp dt:dt=""r8"">766478057744</Timestamp><Current dt:dt=""r8"">0</Current><DateUtc dt:dt=""string"">2017-10-12T11:37:33Z</DateUtc></FrequencyChange></FrequencyChanges></Clock>\n",Individual-001-1,59.955,?,1.0.0.485,1,1974451564,Professional,2.0.10.353,2.0.10.353,10/12/2017,12/10/2017 11:37,12:37:33,2.0.10.248,1,1,1,1,M1,List1,3,3,1,3,NULL,NULL,NULL,b1,BlockList1,51,80,2,51,w,NULL,NULL,NULL,NULL,NULL,NULL,NULL,NULL,NULL,TrialProc4,b1trails1,red,e,1,w,604
Individual,1,1,"<?xml version=""1.0""?>\n<Clock xmlns:dt=""urn:schemas-microsoft-com:datatypes""><Description dt:dt=""string"">E-Prime Primary Realtime Clock</Description><StartTime><Timestamp dt:dt=""int"">0</Timestamp><DateUtc dt:dt=""string"">2017-10-12T11:37:33Z</DateUtc></StartTime><FrequencyChanges><FrequencyChange><Frequency dt:dt=""r8"">2923154</Frequency><Timestamp dt:dt=""r8"">766478057744</Timestamp><Current dt:dt=""r8"">0</Current><DateUtc dt:dt=""string"">2017-10-12T11:37:33Z</DateUtc></FrequencyChange></FrequencyChanges></Clock>\n",Individual-001-1,59.955,?,1.0.0.485,1,1974451564,Professional,2.0.10.353,2.0.10.353,10/12/2017,12/10/2017 11:37,12:37:33,2.0.10.248,1,1,1,1,M1,List1,3,3,1,3,NULL,NULL,NULL,b1,BlockList1,52,6,2,52,e,NULL,NULL,NULL,NULL,NULL,NULL,NULL,NULL,NULL,TrialProc4,b1trails1,blue,w,1,e,410
Individual,1,1,"<?xml version=""1.0""?>\n<Clock xmlns:dt=""urn:schemas-microsoft-com:datatypes""><Description dt:dt=""string"">E-Prime Primary Realtime Clock</Description><StartTime><Timestamp dt:dt=""int"">0</Timestamp><DateUtc dt:dt=""string"">2017-10-12T11:37:33Z</DateUtc></StartTime><FrequencyChanges><FrequencyChange><Frequency dt:dt=""r8"">2923154</Frequency><Timestamp dt:dt=""r8"">766478057744</Timestamp><Current dt:dt=""r8"">0</Current><DateUtc dt:dt=""string"">2017-10-12T11:37:33Z</DateUtc></FrequencyChange></FrequencyChanges></Clock>\n",Individual-001-1,59.955,?,1.0.0.485,1,1974451564,Professional,2.0.10.353,2.0.10.353,10/12/2017,12/10/2017 11:37,12:37:33,2.0.10.248,1,1,1,1,M1,List1,3,3,1,3,NULL,NULL,NULL,b1,BlockList1,53,87,2,53,w,NULL,NULL,NULL,NULL,NULL,NULL,NULL,NULL,NULL,TrialProc4,b1trails1,red,w,1,w,490
Individual,1,1,"<?xml version=""1.0""?>\n<Clock xmlns:dt=""urn:schemas-microsoft-com:datatypes""><Description dt:dt=""string"">E-Prime Primary Realtime Clock</Description><StartTime><Timestamp dt:dt=""int"">0</Timestamp><DateUtc dt:dt=""string"">2017-10-12T11:37:33Z</DateUtc></StartTime><FrequencyChanges><FrequencyChange><Frequency dt:dt=""r8"">2923154</Frequency><Timestamp dt:dt=""r8"">766478057744</Timestamp><Current dt:dt=""r8"">0</Current><DateUtc dt:dt=""string"">2017-10-12T11:37:33Z</DateUtc></FrequencyChange></FrequencyChanges></Clock>\n",Individual-001-1,59.955,?,1.0.0.485,1,1974451564,Professional,2.0.10.353,2.0.10.353,10/12/2017,12/10/2017 11:37,12:37:33,2.0.10.248,1,1,1,1,M1,List1,3,3,1,3,NULL,NULL,NULL,b1,BlockList1,54,75,2,54,w,NULL,NULL,NULL,NULL,NULL,NULL,NULL,NULL,NULL,TrialProc4,b1trails1,red,w,1,w,481
Individual,1,1,"<?xml version=""1.0""?>\n<Clock xmlns:dt=""urn:schemas-microsoft-com:datatypes""><Description dt:dt=""string"">E-Prime Primary Realtime Clock</Description><StartTime><Timestamp dt:dt=""int"">0</Timestamp><DateUtc dt:dt=""string"">2017-10-12T11:37:33Z</DateUtc></StartTime><FrequencyChanges><FrequencyChange><Frequency dt:dt=""r8"">2923154</Frequency><Timestamp dt:dt=""r8"">766478057744</Timestamp><Current dt:dt=""r8"">0</Current><DateUtc dt:dt=""string"">2017-10-12T11:37:33Z</DateUtc></FrequencyChange></FrequencyChanges></Clock>\n",Individual-001-1,59.955,?,1.0.0.485,1,1974451564,Professional,2.0.10.353,2.0.10.353,10/12/2017,12/10/2017 11:37,12:37:33,2.0.10.248,1,1,1,1,M1,List1,3,3,1,3,NULL,NULL,NULL,b1,BlockList1,55,16,2,55,w,NULL,NULL,NULL,NULL,NULL,NULL,NULL,NULL,NULL,TrialProc4,b1trails1,red,e,1,w,422
Individual,1,1,"<?xml version=""1.0""?>\n<Clock xmlns:dt=""urn:schemas-microsoft-com:datatypes""><Description dt:dt=""string"">E-Prime Primary Realtime Clock</Description><StartTime><Timestamp dt:dt=""int"">0</Timestamp><DateUtc dt:dt=""string"">2017-10-12T11:37:33Z</DateUtc></StartTime><FrequencyChanges><FrequencyChange><Frequency dt:dt=""r8"">2923154</Frequency><Timestamp dt:dt=""r8"">766478057744</Timestamp><Current dt:dt=""r8"">0</Current><DateUtc dt:dt=""string"">2017-10-12T11:37:33Z</DateUtc></FrequencyChange></FrequencyChanges></Clock>\n",Individual-001-1,59.955,?,1.0.0.485,1,1974451564,Professional,2.0.10.353,2.0.10.353,10/12/2017,12/10/2017 11:37,12:37:33,2.0.10.248,1,1,1,1,M1,List1,3,3,1,3,NULL,NULL,NULL,b1,BlockList1,56,69,2,56,e,NULL,NULL,NULL,NULL,NULL,NULL,NULL,NULL,NULL,TrialProc4,b1trails1,blue,e,1,e,551
Individual,1,1,"<?xml version=""1.0""?>\n<Clock xmlns:dt=""urn:schemas-microsoft-com:datatypes""><Description dt:dt=""string"">E-Prime Primary Realtime Clock</Description><StartTime><Timestamp dt:dt=""int"">0</Timestamp><DateUtc dt:dt=""string"">2017-10-12T11:37:33Z</DateUtc></StartTime><FrequencyChanges><FrequencyChange><Frequency dt:dt=""r8"">2923154</Frequency><Timestamp dt:dt=""r8"">766478057744</Timestamp><Current dt:dt=""r8"">0</Current><DateUtc dt:dt=""string"">2017-10-12T11:37:33Z</DateUtc></FrequencyChange></FrequencyChanges></Clock>\n",Individual-001-1,59.955,?,1.0.0.485,1,1974451564,Professional,2.0.10.353,2.0.10.353,10/12/2017,12/10/2017 11:37,12:37:33,2.0.10.248,1,1,1,1,M1,List1,3,3,1,3,NULL,NULL,NULL,b1,BlockList1,57,63,2,57,w,NULL,NULL,NULL,NULL,NULL,NULL,NULL,NULL,NULL,TrialProc4,b1trails1,red,w,1,w,569
Individual,1,1,"<?xml version=""1.0""?>\n<Clock xmlns:dt=""urn:schemas-microsoft-com:datatypes""><Description dt:dt=""string"">E-Prime Primary Realtime Clock</Description><StartTime><Timestamp dt:dt=""int"">0</Timestamp><DateUtc dt:dt=""string"">2017-10-12T11:37:33Z</DateUtc></StartTime><FrequencyChanges><FrequencyChange><Frequency dt:dt=""r8"">2923154</Frequency><Timestamp dt:dt=""r8"">766478057744</Timestamp><Current dt:dt=""r8"">0</Current><DateUtc dt:dt=""string"">2017-10-12T11:37:33Z</DateUtc></FrequencyChange></FrequencyChanges></Clock>\n",Individual-001-1,59.955,?,1.0.0.485,1,1974451564,Professional,2.0.10.353,2.0.10.353,10/12/2017,12/10/2017 11:37,12:37:33,2.0.10.248,1,1,1,1,M1,List1,3,3,1,3,NULL,NULL,NULL,b1,BlockList1,58,15,2,58,w,NULL,NULL,NULL,NULL,NULL,NULL,NULL,NULL,NULL,TrialProc4,b1trails1,red,w,1,w,455
Individual,1,1,"<?xml version=""1.0""?>\n<Clock xmlns:dt=""urn:schemas-microsoft-com:datatypes""><Description dt:dt=""string"">E-Prime Primary Realtime Clock</Description><StartTime><Timestamp dt:dt=""int"">0</Timestamp><DateUtc dt:dt=""string"">2017-10-12T11:37:33Z</DateUtc></StartTime><FrequencyChanges><FrequencyChange><Frequency dt:dt=""r8"">2923154</Frequency><Timestamp dt:dt=""r8"">766478057744</Timestamp><Current dt:dt=""r8"">0</Current><DateUtc dt:dt=""string"">2017-10-12T11:37:33Z</DateUtc></FrequencyChange></FrequencyChanges></Clock>\n",Individual-001-1,59.955,?,1.0.0.485,1,1974451564,Professional,2.0.10.353,2.0.10.353,10/12/2017,12/10/2017 11:37,12:37:33,2.0.10.248,1,1,1,1,M1,List1,3,3,1,3,NULL,NULL,NULL,b1,BlockList1,59,72,2,59,w,NULL,NULL,NULL,NULL,NULL,NULL,NULL,NULL,NULL,TrialProc4,b1trails1,red,e,1,w,600
Individual,1,1,"<?xml version=""1.0""?>\n<Clock xmlns:dt=""urn:schemas-microsoft-com:datatypes""><Description dt:dt=""string"">E-Prime Primary Realtime Clock</Description><StartTime><Timestamp dt:dt=""int"">0</Timestamp><DateUtc dt:dt=""string"">2017-10-12T11:37:33Z</DateUtc></StartTime><FrequencyChanges><FrequencyChange><Frequency dt:dt=""r8"">2923154</Frequency><Timestamp dt:dt=""r8"">766478057744</Timestamp><Current dt:dt=""r8"">0</Current><DateUtc dt:dt=""string"">2017-10-12T11:37:33Z</DateUtc></FrequencyChange></FrequencyChanges></Clock>\n",Individual-001-1,59.955,?,1.0.0.485,1,1974451564,Professional,2.0.10.353,2.0.10.353,10/12/2017,12/10/2017 11:37,12:37:33,2.0.10.248,1,1,1,1,M1,List1,3,3,1,3,NULL,NULL,NULL,b1,BlockList1,60,45,2,60,e,NULL,NULL,NULL,NULL,NULL,NULL,NULL,NULL,NULL,TrialProc4,b1trails1,blue,e,1,e,397
Individual,1,1,"<?xml version=""1.0""?>\n<Clock xmlns:dt=""urn:schemas-microsoft-com:datatypes""><Description dt:dt=""string"">E-Prime Primary Realtime Clock</Description><StartTime><Timestamp dt:dt=""int"">0</Timestamp><DateUtc dt:dt=""string"">2017-10-12T11:37:33Z</DateUtc></StartTime><FrequencyChanges><FrequencyChange><Frequency dt:dt=""r8"">2923154</Frequency><Timestamp dt:dt=""r8"">766478057744</Timestamp><Current dt:dt=""r8"">0</Current><DateUtc dt:dt=""string"">2017-10-12T11:37:33Z</DateUtc></FrequencyChange></FrequencyChanges></Clock>\n",Individual-001-1,59.955,?,1.0.0.485,1,1974451564,Professional,2.0.10.353,2.0.10.353,10/12/2017,12/10/2017 11:37,12:37:33,2.0.10.248,1,1,1,1,M1,List1,3,3,1,3,NULL,NULL,NULL,b1,BlockList1,61,88,2,61,w,NULL,NULL,NULL,NULL,NULL,NULL,NULL,NULL,NULL,TrialProc4,b1trails1,red,e,1,w,396
Individual,1,1,"<?xml version=""1.0""?>\n<Clock xmlns:dt=""urn:schemas-microsoft-com:datatypes""><Description dt:dt=""string"">E-Prime Primary Realtime Clock</Description><StartTime><Timestamp dt:dt=""int"">0</Timestamp><DateUtc dt:dt=""string"">2017-10-12T11:37:33Z</DateUtc></StartTime><FrequencyChanges><FrequencyChange><Frequency dt:dt=""r8"">2923154</Frequency><Timestamp dt:dt=""r8"">766478057744</Timestamp><Current dt:dt=""r8"">0</Current><DateUtc dt:dt=""string"">2017-10-12T11:37:33Z</DateUtc></FrequencyChange></FrequencyChanges></Clock>\n",Individual-001-1,59.955,?,1.0.0.485,1,1974451564,Professional,2.0.10.353,2.0.10.353,10/12/2017,12/10/2017 11:37,12:37:33,2.0.10.248,1,1,1,1,M1,List1,3,3,1,3,NULL,NULL,NULL,b1,BlockList1,62,19,2,62,w,NULL,NULL,NULL,NULL,NULL,NULL,NULL,NULL,NULL,TrialProc4,b1trails1,red,w,1,w,680
Individual,1,1,"<?xml version=""1.0""?>\n<Clock xmlns:dt=""urn:schemas-microsoft-com:datatypes""><Description dt:dt=""string"">E-Prime Primary Realtime Clock</Description><StartTime><Timestamp dt:dt=""int"">0</Timestamp><DateUtc dt:dt=""string"">2017-10-12T11:37:33Z</DateUtc></StartTime><FrequencyChanges><FrequencyChange><Frequency dt:dt=""r8"">2923154</Frequency><Timestamp dt:dt=""r8"">766478057744</Timestamp><Current dt:dt=""r8"">0</Current><DateUtc dt:dt=""string"">2017-10-12T11:37:33Z</DateUtc></FrequencyChange></FrequencyChanges></Clock>\n",Individual-001-1,59.955,?,1.0.0.485,1,1974451564,Professional,2.0.10.353,2.0.10.353,10/12/2017,12/10/2017 11:37,12:37:33,2.0.10.248,1,1,1,1,M1,List1,3,3,1,3,NULL,NULL,NULL,b1,BlockList1,63,18,2,63,e,NULL,NULL,NULL,NULL,NULL,NULL,NULL,NULL,NULL,TrialProc4,b1trails1,blue,w,1,e,566
Individual,1,1,"<?xml version=""1.0""?>\n<Clock xmlns:dt=""urn:schemas-microsoft-com:datatypes""><Description dt:dt=""string"">E-Prime Primary Realtime Clock</Description><StartTime><Timestamp dt:dt=""int"">0</Timestamp><DateUtc dt:dt=""string"">2017-10-12T11:37:33Z</DateUtc></StartTime><FrequencyChanges><FrequencyChange><Frequency dt:dt=""r8"">2923154</Frequency><Timestamp dt:dt=""r8"">766478057744</Timestamp><Current dt:dt=""r8"">0</Current><DateUtc dt:dt=""string"">2017-10-12T11:37:33Z</DateUtc></FrequencyChange></FrequencyChanges></Clock>\n",Individual-001-1,59.955,?,1.0.0.485,1,1974451564,Professional,2.0.10.353,2.0.10.353,10/12/2017,12/10/2017 11:37,12:37:33,2.0.10.248,1,1,1,1,M1,List1,3,3,1,3,NULL,NULL,NULL,b1,BlockList1,64,53,2,64,e,NULL,NULL,NULL,NULL,NULL,NULL,NULL,NULL,NULL,TrialProc4,b1trails1,blue,e,1,e,508
Individual,1,1,"<?xml version=""1.0""?>\n<Clock xmlns:dt=""urn:schemas-microsoft-com:datatypes""><Description dt:dt=""string"">E-Prime Primary Realtime Clock</Description><StartTime><Timestamp dt:dt=""int"">0</Timestamp><DateUtc dt:dt=""string"">2017-10-12T11:37:33Z</DateUtc></StartTime><FrequencyChanges><FrequencyChange><Frequency dt:dt=""r8"">2923154</Frequency><Timestamp dt:dt=""r8"">766478057744</Timestamp><Current dt:dt=""r8"">0</Current><DateUtc dt:dt=""string"">2017-10-12T11:37:33Z</DateUtc></FrequencyChange></FrequencyChanges></Clock>\n",Individual-001-1,59.955,?,1.0.0.485,1,1974451564,Professional,2.0.10.353,2.0.10.353,10/12/2017,12/10/2017 11:37,12:37:33,2.0.10.248,1,1,1,1,M1,List1,3,3,1,3,NULL,NULL,NULL,b1,BlockList1,65,17,2,65,e,NULL,NULL,NULL,NULL,NULL,NULL,NULL,NULL,NULL,TrialProc4,b1trails1,blue,e,1,e,528
Individual,1,1,"<?xml version=""1.0""?>\n<Clock xmlns:dt=""urn:schemas-microsoft-com:datatypes""><Description dt:dt=""string"">E-Prime Primary Realtime Clock</Description><StartTime><Timestamp dt:dt=""int"">0</Timestamp><DateUtc dt:dt=""string"">2017-10-12T11:37:33Z</DateUtc></StartTime><FrequencyChanges><FrequencyChange><Frequency dt:dt=""r8"">2923154</Frequency><Timestamp dt:dt=""r8"">766478057744</Timestamp><Current dt:dt=""r8"">0</Current><DateUtc dt:dt=""string"">2017-10-12T11:37:33Z</DateUtc></FrequencyChange></FrequencyChanges></Clock>\n",Individual-001-1,59.955,?,1.0.0.485,1,1974451564,Professional,2.0.10.353,2.0.10.353,10/12/2017,12/10/2017 11:37,12:37:33,2.0.10.248,1,1,1,1,M1,List1,3,3,1,3,NULL,NULL,NULL,b1,BlockList1,66,29,2,66,e,NULL,NULL,NULL,NULL,NULL,NULL,NULL,NULL,NULL,TrialProc4,b1trails1,blue,e,1,e,364
Individual,1,1,"<?xml version=""1.0""?>\n<Clock xmlns:dt=""urn:schemas-microsoft-com:datatypes""><Description dt:dt=""string"">E-Prime Primary Realtime Clock</Description><StartTime><Timestamp dt:dt=""int"">0</Timestamp><DateUtc dt:dt=""string"">2017-10-12T11:37:33Z</DateUtc></StartTime><FrequencyChanges><FrequencyChange><Frequency dt:dt=""r8"">2923154</Frequency><Timestamp dt:dt=""r8"">766478057744</Timestamp><Current dt:dt=""r8"">0</Current><DateUtc dt:dt=""string"">2017-10-12T11:37:33Z</DateUtc></FrequencyChange></FrequencyChanges></Clock>\n",Individual-001-1,59.955,?,1.0.0.485,1,1974451564,Professional,2.0.10.353,2.0.10.353,10/12/2017,12/10/2017 11:37,12:37:33,2.0.10.248,1,1,1,1,M1,List1,3,3,1,3,NULL,NULL,NULL,b1,BlockList1,67,30,2,67,e,NULL,NULL,NULL,NULL,NULL,NULL,NULL,NULL,NULL,TrialProc4,b1trails1,blue,w,1,e,471
Individual,1,1,"<?xml version=""1.0""?>\n<Clock xmlns:dt=""urn:schemas-microsoft-com:datatypes""><Description dt:dt=""string"">E-Prime Primary Realtime Clock</Description><StartTime><Timestamp dt:dt=""int"">0</Timestamp><DateUtc dt:dt=""string"">2017-10-12T11:37:33Z</DateUtc></StartTime><FrequencyChanges><FrequencyChange><Frequency dt:dt=""r8"">2923154</Frequency><Timestamp dt:dt=""r8"">766478057744</Timestamp><Current dt:dt=""r8"">0</Current><DateUtc dt:dt=""string"">2017-10-12T11:37:33Z</DateUtc></FrequencyChange></FrequencyChanges></Clock>\n",Individual-001-1,59.955,?,1.0.0.485,1,1974451564,Professional,2.0.10.353,2.0.10.353,10/12/2017,12/10/2017 11:37,12:37:33,2.0.10.248,1,1,1,1,M1,List1,3,3,1,3,NULL,NULL,NULL,b1,BlockList1,68,22,2,68,e,NULL,NULL,NULL,NULL,NULL,NULL,NULL,NULL,NULL,TrialProc4,b1trails1,blue,w,1,e,459
Individual,1,1,"<?xml version=""1.0""?>\n<Clock xmlns:dt=""urn:schemas-microsoft-com:datatypes""><Description dt:dt=""string"">E-Prime Primary Realtime Clock</Description><StartTime><Timestamp dt:dt=""int"">0</Timestamp><DateUtc dt:dt=""string"">2017-10-12T11:37:33Z</DateUtc></StartTime><FrequencyChanges><FrequencyChange><Frequency dt:dt=""r8"">2923154</Frequency><Timestamp dt:dt=""r8"">766478057744</Timestamp><Current dt:dt=""r8"">0</Current><DateUtc dt:dt=""string"">2017-10-12T11:37:33Z</DateUtc></FrequencyChange></FrequencyChanges></Clock>\n",Individual-001-1,59.955,?,1.0.0.485,1,1974451564,Professional,2.0.10.353,2.0.10.353,10/12/2017,12/10/2017 11:37,12:37:33,2.0.10.248,1,1,1,1,M1,List1,3,3,1,3,NULL,NULL,NULL,b1,BlockList1,69,74,2,69,e,NULL,NULL,NULL,NULL,NULL,NULL,NULL,NULL,NULL,TrialProc4,b1trails1,blue,w,1,e,363
Individual,1,1,"<?xml version=""1.0""?>\n<Clock xmlns:dt=""urn:schemas-microsoft-com:datatypes""><Description dt:dt=""string"">E-Prime Primary Realtime Clock</Description><StartTime><Timestamp dt:dt=""int"">0</Timestamp><DateUtc dt:dt=""string"">2017-10-12T11:37:33Z</DateUtc></StartTime><FrequencyChanges><FrequencyChange><Frequency dt:dt=""r8"">2923154</Frequency><Timestamp dt:dt=""r8"">766478057744</Timestamp><Current dt:dt=""r8"">0</Current><DateUtc dt:dt=""string"">2017-10-12T11:37:33Z</DateUtc></FrequencyChange></FrequencyChanges></Clock>\n",Individual-001-1,59.955,?,1.0.0.485,1,1974451564,Professional,2.0.10.353,2.0.10.353,10/12/2017,12/10/2017 11:37,12:37:33,2.0.10.248,1,1,1,1,M1,List1,3,3,1,3,NULL,NULL,NULL,b1,BlockList1,70,49,2,70,e,NULL,NULL,NULL,NULL,NULL,NULL,NULL,NULL,NULL,TrialProc4,b1trails1,blue,e,1,e,298
Individual,1,1,"<?xml version=""1.0""?>\n<Clock xmlns:dt=""urn:schemas-microsoft-com:datatypes""><Description dt:dt=""string"">E-Prime Primary Realtime Clock</Description><StartTime><Timestamp dt:dt=""int"">0</Timestamp><DateUtc dt:dt=""string"">2017-10-12T11:37:33Z</DateUtc></StartTime><FrequencyChanges><FrequencyChange><Frequency dt:dt=""r8"">2923154</Frequency><Timestamp dt:dt=""r8"">766478057744</Timestamp><Current dt:dt=""r8"">0</Current><DateUtc dt:dt=""string"">2017-10-12T11:37:33Z</DateUtc></FrequencyChange></FrequencyChanges></Clock>\n",Individual-001-1,59.955,?,1.0.0.485,1,1974451564,Professional,2.0.10.353,2.0.10.353,10/12/2017,12/10/2017 11:37,12:37:33,2.0.10.248,1,1,1,1,M1,List1,3,3,1,3,NULL,NULL,NULL,b1,BlockList1,71,12,2,71,w,NULL,NULL,NULL,NULL,NULL,NULL,NULL,NULL,NULL,TrialProc4,b1trails1,red,e,1,w,456
Individual,1,1,"<?xml version=""1.0""?>\n<Clock xmlns:dt=""urn:schemas-microsoft-com:datatypes""><Description dt:dt=""string"">E-Prime Primary Realtime Clock</Description><StartTime><Timestamp dt:dt=""int"">0</Timestamp><DateUtc dt:dt=""string"">2017-10-12T11:37:33Z</DateUtc></StartTime><FrequencyChanges><FrequencyChange><Frequency dt:dt=""r8"">2923154</Frequency><Timestamp dt:dt=""r8"">766478057744</Timestamp><Current dt:dt=""r8"">0</Current><DateUtc dt:dt=""string"">2017-10-12T11:37:33Z</DateUtc></FrequencyChange></FrequencyChanges></Clock>\n",Individual-001-1,59.955,?,1.0.0.485,1,1974451564,Professional,2.0.10.353,2.0.10.353,10/12/2017,12/10/2017 11:37,12:37:33,2.0.10.248,1,1,1,1,M1,List1,3,3,1,3,NULL,NULL,NULL,b1,BlockList1,72,4,2,72,w,NULL,NULL,NULL,NULL,NULL,NULL,NULL,NULL,NULL,TrialProc4,b1trails1,red,e,1,w,505
Individual,1,1,"<?xml version=""1.0""?>\n<Clock xmlns:dt=""urn:schemas-microsoft-com:datatypes""><Description dt:dt=""string"">E-Prime Primary Realtime Clock</Description><StartTime><Timestamp dt:dt=""int"">0</Timestamp><DateUtc dt:dt=""string"">2017-10-12T11:37:33Z</DateUtc></StartTime><FrequencyChanges><FrequencyChange><Frequency dt:dt=""r8"">2923154</Frequency><Timestamp dt:dt=""r8"">766478057744</Timestamp><Current dt:dt=""r8"">0</Current><DateUtc dt:dt=""string"">2017-10-12T11:37:33Z</DateUtc></FrequencyChange></FrequencyChanges></Clock>\n",Individual-001-1,59.955,?,1.0.0.485,1,1974451564,Professional,2.0.10.353,2.0.10.353,10/12/2017,12/10/2017 11:37,12:37:33,2.0.10.248,1,1,1,1,M1,List1,3,3,1,3,NULL,NULL,NULL,b1,BlockList1,73,26,2,73,e,NULL,NULL,NULL,NULL,NULL,NULL,NULL,NULL,NULL,TrialProc4,b1trails1,blue,w,1,e,402
Individual,1,1,"<?xml version=""1.0""?>\n<Clock xmlns:dt=""urn:schemas-microsoft-com:datatypes""><Description dt:dt=""string"">E-Prime Primary Realtime Clock</Description><StartTime><Timestamp dt:dt=""int"">0</Timestamp><DateUtc dt:dt=""string"">2017-10-12T11:37:33Z</DateUtc></StartTime><FrequencyChanges><FrequencyChange><Frequency dt:dt=""r8"">2923154</Frequency><Timestamp dt:dt=""r8"">766478057744</Timestamp><Current dt:dt=""r8"">0</Current><DateUtc dt:dt=""string"">2017-10-12T11:37:33Z</DateUtc></FrequencyChange></FrequencyChanges></Clock>\n",Individual-001-1,59.955,?,1.0.0.485,1,1974451564,Professional,2.0.10.353,2.0.10.353,10/12/2017,12/10/2017 11:37,12:37:33,2.0.10.248,1,1,1,1,M1,List1,3,3,1,3,NULL,NULL,NULL,b1,BlockList1,74,42,2,74,e,NULL,NULL,NULL,NULL,NULL,NULL,NULL,NULL,NULL,TrialProc4,b1trails1,blue,w,1,e,507
Individual,1,1,"<?xml version=""1.0""?>\n<Clock xmlns:dt=""urn:schemas-microsoft-com:datatypes""><Description dt:dt=""string"">E-Prime Primary Realtime Clock</Description><StartTime><Timestamp dt:dt=""int"">0</Timestamp><DateUtc dt:dt=""string"">2017-10-12T11:37:33Z</DateUtc></StartTime><FrequencyChanges><FrequencyChange><Frequency dt:dt=""r8"">2923154</Frequency><Timestamp dt:dt=""r8"">766478057744</Timestamp><Current dt:dt=""r8"">0</Current><DateUtc dt:dt=""string"">2017-10-12T11:37:33Z</DateUtc></FrequencyChange></FrequencyChanges></Clock>\n",Individual-001-1,59.955,?,1.0.0.485,1,1974451564,Professional,2.0.10.353,2.0.10.353,10/12/2017,12/10/2017 11:37,12:37:33,2.0.10.248,1,1,1,1,M1,List1,3,3,1,3,NULL,NULL,NULL,b1,BlockList1,75,5,2,75,e,NULL,NULL,NULL,NULL,NULL,NULL,NULL,NULL,NULL,TrialProc4,b1trails1,blue,e,1,e,607
Individual,1,1,"<?xml version=""1.0""?>\n<Clock xmlns:dt=""urn:schemas-microsoft-com:datatypes""><Description dt:dt=""string"">E-Prime Primary Realtime Clock</Description><StartTime><Timestamp dt:dt=""int"">0</Timestamp><DateUtc dt:dt=""string"">2017-10-12T11:37:33Z</DateUtc></StartTime><FrequencyChanges><FrequencyChange><Frequency dt:dt=""r8"">2923154</Frequency><Timestamp dt:dt=""r8"">766478057744</Timestamp><Current dt:dt=""r8"">0</Current><DateUtc dt:dt=""string"">2017-10-12T11:37:33Z</DateUtc></FrequencyChange></FrequencyChanges></Clock>\n",Individual-001-1,59.955,?,1.0.0.485,1,1974451564,Professional,2.0.10.353,2.0.10.353,10/12/2017,12/10/2017 11:37,12:37:33,2.0.10.248,1,1,1,1,M1,List1,3,3,1,3,NULL,NULL,NULL,b1,BlockList1,76,25,2,76,e,NULL,NULL,NULL,NULL,NULL,NULL,NULL,NULL,NULL,TrialProc4,b1trails1,blue,e,1,e,569
Individual,1,1,"<?xml version=""1.0""?>\n<Clock xmlns:dt=""urn:schemas-microsoft-com:datatypes""><Description dt:dt=""string"">E-Prime Primary Realtime Clock</Description><StartTime><Timestamp dt:dt=""int"">0</Timestamp><DateUtc dt:dt=""string"">2017-10-12T11:37:33Z</DateUtc></StartTime><FrequencyChanges><FrequencyChange><Frequency dt:dt=""r8"">2923154</Frequency><Timestamp dt:dt=""r8"">766478057744</Timestamp><Current dt:dt=""r8"">0</Current><DateUtc dt:dt=""string"">2017-10-12T11:37:33Z</DateUtc></FrequencyChange></FrequencyChanges></Clock>\n",Individual-001-1,59.955,?,1.0.0.485,1,1974451564,Professional,2.0.10.353,2.0.10.353,10/12/2017,12/10/2017 11:37,12:37:33,2.0.10.248,1,1,1,1,M1,List1,3,3,1,3,NULL,NULL,NULL,b1,BlockList1,77,31,2,77,w,NULL,NULL,NULL,NULL,NULL,NULL,NULL,NULL,NULL,TrialProc4,b1trails1,red,w,1,w,326
Individual,1,1,"<?xml version=""1.0""?>\n<Clock xmlns:dt=""urn:schemas-microsoft-com:datatypes""><Description dt:dt=""string"">E-Prime Primary Realtime Clock</Description><StartTime><Timestamp dt:dt=""int"">0</Timestamp><DateUtc dt:dt=""string"">2017-10-12T11:37:33Z</DateUtc></StartTime><FrequencyChanges><FrequencyChange><Frequency dt:dt=""r8"">2923154</Frequency><Timestamp dt:dt=""r8"">766478057744</Timestamp><Current dt:dt=""r8"">0</Current><DateUtc dt:dt=""string"">2017-10-12T11:37:33Z</DateUtc></FrequencyChange></FrequencyChanges></Clock>\n",Individual-001-1,59.955,?,1.0.0.485,1,1974451564,Professional,2.0.10.353,2.0.10.353,10/12/2017,12/10/2017 11:37,12:37:33,2.0.10.248,1,1,1,1,M1,List1,3,3,1,3,NULL,NULL,NULL,b1,BlockList1,78,76,2,78,w,NULL,NULL,NULL,NULL,NULL,NULL,NULL,NULL,NULL,TrialProc4,b1trails1,red,e,1,w,331
Individual,1,1,"<?xml version=""1.0""?>\n<Clock xmlns:dt=""urn:schemas-microsoft-com:datatypes""><Description dt:dt=""string"">E-Prime Primary Realtime Clock</Description><StartTime><Timestamp dt:dt=""int"">0</Timestamp><DateUtc dt:dt=""string"">2017-10-12T11:37:33Z</DateUtc></StartTime><FrequencyChanges><FrequencyChange><Frequency dt:dt=""r8"">2923154</Frequency><Timestamp dt:dt=""r8"">766478057744</Timestamp><Current dt:dt=""r8"">0</Current><DateUtc dt:dt=""string"">2017-10-12T11:37:33Z</DateUtc></FrequencyChange></FrequencyChanges></Clock>\n",Individual-001-1,59.955,?,1.0.0.485,1,1974451564,Professional,2.0.10.353,2.0.10.353,10/12/2017,12/10/2017 11:37,12:37:33,2.0.10.248,1,1,1,1,M1,List1,3,3,1,3,NULL,NULL,NULL,b1,BlockList1,79,84,2,79,w,NULL,NULL,NULL,NULL,NULL,NULL,NULL,NULL,NULL,TrialProc4,b1trails1,red,e,1,w,357
Individual,1,1,"<?xml version=""1.0""?>\n<Clock xmlns:dt=""urn:schemas-microsoft-com:datatypes""><Description dt:dt=""string"">E-Prime Primary Realtime Clock</Description><StartTime><Timestamp dt:dt=""int"">0</Timestamp><DateUtc dt:dt=""string"">2017-10-12T11:37:33Z</DateUtc></StartTime><FrequencyChanges><FrequencyChange><Frequency dt:dt=""r8"">2923154</Frequency><Timestamp dt:dt=""r8"">766478057744</Timestamp><Current dt:dt=""r8"">0</Current><DateUtc dt:dt=""string"">2017-10-12T11:37:33Z</DateUtc></FrequencyChange></FrequencyChanges></Clock>\n",Individual-001-1,59.955,?,1.0.0.485,1,1974451564,Professional,2.0.10.353,2.0.10.353,10/12/2017,12/10/2017 11:37,12:37:33,2.0.10.248,1,1,1,1,M1,List1,3,3,1,3,NULL,NULL,NULL,b1,BlockList1,80,82,2,80,e,NULL,NULL,NULL,NULL,NULL,NULL,NULL,NULL,NULL,TrialProc4,b1trails1,blue,w,1,e,435
Individual,1,1,"<?xml version=""1.0""?>\n<Clock xmlns:dt=""urn:schemas-microsoft-com:datatypes""><Description dt:dt=""string"">E-Prime Primary Realtime Clock</Description><StartTime><Timestamp dt:dt=""int"">0</Timestamp><DateUtc dt:dt=""string"">2017-10-12T11:37:33Z</DateUtc></StartTime><FrequencyChanges><FrequencyChange><Frequency dt:dt=""r8"">2923154</Frequency><Timestamp dt:dt=""r8"">766478057744</Timestamp><Current dt:dt=""r8"">0</Current><DateUtc dt:dt=""string"">2017-10-12T11:37:33Z</DateUtc></FrequencyChange></FrequencyChanges></Clock>\n",Individual-001-1,59.955,?,1.0.0.485,1,1974451564,Professional,2.0.10.353,2.0.10.353,10/12/2017,12/10/2017 11:37,12:37:33,2.0.10.248,1,1,1,1,M1,List1,3,3,1,3,NULL,NULL,NULL,b1,BlockList1,81,14,2,81,e,NULL,NULL,NULL,NULL,NULL,NULL,NULL,NULL,NULL,TrialProc4,b1trails1,blue,w,1,e,380
Individual,1,1,"<?xml version=""1.0""?>\n<Clock xmlns:dt=""urn:schemas-microsoft-com:datatypes""><Description dt:dt=""string"">E-Prime Primary Realtime Clock</Description><StartTime><Timestamp dt:dt=""int"">0</Timestamp><DateUtc dt:dt=""string"">2017-10-12T11:37:33Z</DateUtc></StartTime><FrequencyChanges><FrequencyChange><Frequency dt:dt=""r8"">2923154</Frequency><Timestamp dt:dt=""r8"">766478057744</Timestamp><Current dt:dt=""r8"">0</Current><DateUtc dt:dt=""string"">2017-10-12T11:37:33Z</DateUtc></FrequencyChange></FrequencyChanges></Clock>\n",Individual-001-1,59.955,?,1.0.0.485,1,1974451564,Professional,2.0.10.353,2.0.10.353,10/12/2017,12/10/2017 11:37,12:37:33,2.0.10.248,1,1,1,1,M1,List1,3,3,1,3,NULL,NULL,NULL,b1,BlockList1,82,68,2,82,w,NULL,NULL,NULL,NULL,NULL,NULL,NULL,NULL,NULL,TrialProc4,b1trails1,red,e,1,w,406
Individual,1,1,"<?xml version=""1.0""?>\n<Clock xmlns:dt=""urn:schemas-microsoft-com:datatypes""><Description dt:dt=""string"">E-Prime Primary Realtime Clock</Description><StartTime><Timestamp dt:dt=""int"">0</Timestamp><DateUtc dt:dt=""string"">2017-10-12T11:37:33Z</DateUtc></StartTime><FrequencyChanges><FrequencyChange><Frequency dt:dt=""r8"">2923154</Frequency><Timestamp dt:dt=""r8"">766478057744</Timestamp><Current dt:dt=""r8"">0</Current><DateUtc dt:dt=""string"">2017-10-12T11:37:33Z</DateUtc></FrequencyChange></FrequencyChanges></Clock>\n",Individual-001-1,59.955,?,1.0.0.485,1,1974451564,Professional,2.0.10.353,2.0.10.353,10/12/2017,12/10/2017 11:37,12:37:33,2.0.10.248,1,1,1,1,M1,List1,3,3,1,3,NULL,NULL,NULL,b1,BlockList1,83,77,2,83,e,NULL,NULL,NULL,NULL,NULL,NULL,NULL,NULL,NULL,TrialProc4,b1trails1,blue,e,1,e,520
Individual,1,1,"<?xml version=""1.0""?>\n<Clock xmlns:dt=""urn:schemas-microsoft-com:datatypes""><Description dt:dt=""string"">E-Prime Primary Realtime Clock</Description><StartTime><Timestamp dt:dt=""int"">0</Timestamp><DateUtc dt:dt=""string"">2017-10-12T11:37:33Z</DateUtc></StartTime><FrequencyChanges><FrequencyChange><Frequency dt:dt=""r8"">2923154</Frequency><Timestamp dt:dt=""r8"">766478057744</Timestamp><Current dt:dt=""r8"">0</Current><DateUtc dt:dt=""string"">2017-10-12T11:37:33Z</DateUtc></FrequencyChange></FrequencyChanges></Clock>\n",Individual-001-1,59.955,?,1.0.0.485,1,1974451564,Professional,2.0.10.353,2.0.10.353,10/12/2017,12/10/2017 11:37,12:37:33,2.0.10.248,1,1,1,1,M1,List1,3,3,1,3,NULL,NULL,NULL,b1,BlockList1,84,35,2,84,w,NULL,NULL,NULL,NULL,NULL,NULL,NULL,NULL,NULL,TrialProc4,b1trails1,red,w,1,w,375
Individual,1,1,"<?xml version=""1.0""?>\n<Clock xmlns:dt=""urn:schemas-microsoft-com:datatypes""><Description dt:dt=""string"">E-Prime Primary Realtime Clock</Description><StartTime><Timestamp dt:dt=""int"">0</Timestamp><DateUtc dt:dt=""string"">2017-10-12T11:37:33Z</DateUtc></StartTime><FrequencyChanges><FrequencyChange><Frequency dt:dt=""r8"">2923154</Frequency><Timestamp dt:dt=""r8"">766478057744</Timestamp><Current dt:dt=""r8"">0</Current><DateUtc dt:dt=""string"">2017-10-12T11:37:33Z</DateUtc></FrequencyChange></FrequencyChanges></Clock>\n",Individual-001-1,59.955,?,1.0.0.485,1,1974451564,Professional,2.0.10.353,2.0.10.353,10/12/2017,12/10/2017 11:37,12:37:33,2.0.10.248,1,1,1,1,M1,List1,3,3,1,3,NULL,NULL,NULL,b1,BlockList1,85,36,2,85,w,NULL,NULL,NULL,NULL,NULL,NULL,NULL,NULL,NULL,TrialProc4,b1trails1,red,e,1,w,532
Individual,1,1,"<?xml version=""1.0""?>\n<Clock xmlns:dt=""urn:schemas-microsoft-com:datatypes""><Description dt:dt=""string"">E-Prime Primary Realtime Clock</Description><StartTime><Timestamp dt:dt=""int"">0</Timestamp><DateUtc dt:dt=""string"">2017-10-12T11:37:33Z</DateUtc></StartTime><FrequencyChanges><FrequencyChange><Frequency dt:dt=""r8"">2923154</Frequency><Timestamp dt:dt=""r8"">766478057744</Timestamp><Current dt:dt=""r8"">0</Current><DateUtc dt:dt=""string"">2017-10-12T11:37:33Z</DateUtc></FrequencyChange></FrequencyChanges></Clock>\n",Individual-001-1,59.955,?,1.0.0.485,1,1974451564,Professional,2.0.10.353,2.0.10.353,10/12/2017,12/10/2017 11:37,12:37:33,2.0.10.248,1,1,1,1,M1,List1,3,3,1,3,NULL,NULL,NULL,b1,BlockList1,86,86,2,86,e,NULL,NULL,NULL,NULL,NULL,NULL,NULL,NULL,NULL,TrialProc4,b1trails1,blue,w,1,e,687
Individual,1,1,"<?xml version=""1.0""?>\n<Clock xmlns:dt=""urn:schemas-microsoft-com:datatypes""><Description dt:dt=""string"">E-Prime Primary Realtime Clock</Description><StartTime><Timestamp dt:dt=""int"">0</Timestamp><DateUtc dt:dt=""string"">2017-10-12T11:37:33Z</DateUtc></StartTime><FrequencyChanges><FrequencyChange><Frequency dt:dt=""r8"">2923154</Frequency><Timestamp dt:dt=""r8"">766478057744</Timestamp><Current dt:dt=""r8"">0</Current><DateUtc dt:dt=""string"">2017-10-12T11:37:33Z</DateUtc></FrequencyChange></FrequencyChanges></Clock>\n",Individual-001-1,59.955,?,1.0.0.485,1,1974451564,Professional,2.0.10.353,2.0.10.353,10/12/2017,12/10/2017 11:37,12:37:33,2.0.10.248,1,1,1,1,M1,List1,3,3,1,3,NULL,NULL,NULL,b1,BlockList1,87,58,2,87,e,NULL,NULL,NULL,NULL,NULL,NULL,NULL,NULL,NULL,TrialProc4,b1trails1,blue,w,1,e,416
Individual,1,1,"<?xml version=""1.0""?>\n<Clock xmlns:dt=""urn:schemas-microsoft-com:datatypes""><Description dt:dt=""string"">E-Prime Primary Realtime Clock</Description><StartTime><Timestamp dt:dt=""int"">0</Timestamp><DateUtc dt:dt=""string"">2017-10-12T11:37:33Z</DateUtc></StartTime><FrequencyChanges><FrequencyChange><Frequency dt:dt=""r8"">2923154</Frequency><Timestamp dt:dt=""r8"">766478057744</Timestamp><Current dt:dt=""r8"">0</Current><DateUtc dt:dt=""string"">2017-10-12T11:37:33Z</DateUtc></FrequencyChange></FrequencyChanges></Clock>\n",Individual-001-1,59.955,?,1.0.0.485,1,1974451564,Professional,2.0.10.353,2.0.10.353,10/12/2017,12/10/2017 11:37,12:37:33,2.0.10.248,1,1,1,1,M1,List1,3,3,1,3,NULL,NULL,NULL,b1,BlockList1,88,2,2,88,e,NULL,NULL,NULL,NULL,NULL,NULL,NULL,NULL,NULL,TrialProc4,b1trails1,blue,w,1,e,403
Individual,1,1,"<?xml version=""1.0""?>\n<Clock xmlns:dt=""urn:schemas-microsoft-com:datatypes""><Description dt:dt=""string"">E-Prime Primary Realtime Clock</Description><StartTime><Timestamp dt:dt=""int"">0</Timestamp><DateUtc dt:dt=""string"">2017-10-12T11:37:33Z</DateUtc></StartTime><FrequencyChanges><FrequencyChange><Frequency dt:dt=""r8"">2923154</Frequency><Timestamp dt:dt=""r8"">766478057744</Timestamp><Current dt:dt=""r8"">0</Current><DateUtc dt:dt=""string"">2017-10-12T11:37:33Z</DateUtc></FrequencyChange></FrequencyChanges></Clock>\n",Individual-001-1,59.955,?,1.0.0.485,1,1974451564,Professional,2.0.10.353,2.0.10.353,10/12/2017,12/10/2017 11:37,12:37:33,2.0.10.248,1,1,1,1,M1,List1,3,3,1,3,NULL,NULL,NULL,b1,BlockList1,89,73,2,89,e,NULL,NULL,NULL,NULL,NULL,NULL,NULL,NULL,NULL,TrialProc4,b1trails1,blue,e,1,e,399
Individual,1,1,"<?xml version=""1.0""?>\n<Clock xmlns:dt=""urn:schemas-microsoft-com:datatypes""><Description dt:dt=""string"">E-Prime Primary Realtime Clock</Description><StartTime><Timestamp dt:dt=""int"">0</Timestamp><DateUtc dt:dt=""string"">2017-10-12T11:37:33Z</DateUtc></StartTime><FrequencyChanges><FrequencyChange><Frequency dt:dt=""r8"">2923154</Frequency><Timestamp dt:dt=""r8"">766478057744</Timestamp><Current dt:dt=""r8"">0</Current><DateUtc dt:dt=""string"">2017-10-12T11:37:33Z</DateUtc></FrequencyChange></FrequencyChanges></Clock>\n",Individual-001-1,59.955,?,1.0.0.485,1,1974451564,Professional,2.0.10.353,2.0.10.353,10/12/2017,12/10/2017 11:37,12:37:33,2.0.10.248,1,1,1,1,M1,List1,3,3,1,3,NULL,NULL,NULL,b1,BlockList1,90,43,2,90,w,NULL,NULL,NULL,NULL,NULL,NULL,NULL,NULL,NULL,TrialProc4,b1trails1,red,w,1,w,500
Individual,1,1,"<?xml version=""1.0""?>\n<Clock xmlns:dt=""urn:schemas-microsoft-com:datatypes""><Description dt:dt=""string"">E-Prime Primary Realtime Clock</Description><StartTime><Timestamp dt:dt=""int"">0</Timestamp><DateUtc dt:dt=""string"">2017-10-12T11:37:33Z</DateUtc></StartTime><FrequencyChanges><FrequencyChange><Frequency dt:dt=""r8"">2923154</Frequency><Timestamp dt:dt=""r8"">766478057744</Timestamp><Current dt:dt=""r8"">0</Current><DateUtc dt:dt=""string"">2017-10-12T11:37:33Z</DateUtc></FrequencyChange></FrequencyChanges></Clock>\n",Individual-001-1,59.955,?,1.0.0.485,1,1974451564,Professional,2.0.10.353,2.0.10.353,10/12/2017,12/10/2017 11:37,12:37:33,2.0.10.248,1,1,1,1,M1,List1,3,3,1,3,NULL,NULL,NULL,b1,BlockList1,91,55,2,91,w,NULL,NULL,NULL,NULL,NULL,NULL,NULL,NULL,NULL,TrialProc4,b1trails1,red,w,1,w,524
Individual,1,1,"<?xml version=""1.0""?>\n<Clock xmlns:dt=""urn:schemas-microsoft-com:datatypes""><Description dt:dt=""string"">E-Prime Primary Realtime Clock</Description><StartTime><Timestamp dt:dt=""int"">0</Timestamp><DateUtc dt:dt=""string"">2017-10-12T11:37:33Z</DateUtc></StartTime><FrequencyChanges><FrequencyChange><Frequency dt:dt=""r8"">2923154</Frequency><Timestamp dt:dt=""r8"">766478057744</Timestamp><Current dt:dt=""r8"">0</Current><DateUtc dt:dt=""string"">2017-10-12T11:37:33Z</DateUtc></FrequencyChange></FrequencyChanges></Clock>\n",Individual-001-1,59.955,?,1.0.0.485,1,1974451564,Professional,2.0.10.353,2.0.10.353,10/12/2017,12/10/2017 11:37,12:37:33,2.0.10.248,1,1,1,1,M1,List1,3,3,1,3,NULL,NULL,NULL,b1,BlockList1,92,52,2,92,w,NULL,NULL,NULL,NULL,NULL,NULL,NULL,NULL,NULL,TrialProc4,b1trails1,red,e,1,w,977
Individual,1,1,"<?xml version=""1.0""?>\n<Clock xmlns:dt=""urn:schemas-microsoft-com:datatypes""><Description dt:dt=""string"">E-Prime Primary Realtime Clock</Description><StartTime><Timestamp dt:dt=""int"">0</Timestamp><DateUtc dt:dt=""string"">2017-10-12T11:37:33Z</DateUtc></StartTime><FrequencyChanges><FrequencyChange><Frequency dt:dt=""r8"">2923154</Frequency><Timestamp dt:dt=""r8"">766478057744</Timestamp><Current dt:dt=""r8"">0</Current><DateUtc dt:dt=""string"">2017-10-12T11:37:33Z</DateUtc></FrequencyChange></FrequencyChanges></Clock>\n",Individual-001-1,59.955,?,1.0.0.485,1,1974451564,Professional,2.0.10.353,2.0.10.353,10/12/2017,12/10/2017 11:37,12:37:33,2.0.10.248,1,1,1,1,M1,List1,3,3,1,3,NULL,NULL,NULL,b1,BlockList1,93,8,2,93,w,NULL,NULL,NULL,NULL,NULL,NULL,NULL,NULL,NULL,TrialProc4,b1trails1,red,e,1,w,336
Individual,1,1,"<?xml version=""1.0""?>\n<Clock xmlns:dt=""urn:schemas-microsoft-com:datatypes""><Description dt:dt=""string"">E-Prime Primary Realtime Clock</Description><StartTime><Timestamp dt:dt=""int"">0</Timestamp><DateUtc dt:dt=""string"">2017-10-12T11:37:33Z</DateUtc></StartTime><FrequencyChanges><FrequencyChange><Frequency dt:dt=""r8"">2923154</Frequency><Timestamp dt:dt=""r8"">766478057744</Timestamp><Current dt:dt=""r8"">0</Current><DateUtc dt:dt=""string"">2017-10-12T11:37:33Z</DateUtc></FrequencyChange></FrequencyChanges></Clock>\n",Individual-001-1,59.955,?,1.0.0.485,1,1974451564,Professional,2.0.10.353,2.0.10.353,10/12/2017,12/10/2017 11:37,12:37:33,2.0.10.248,1,1,1,1,M1,List1,3,3,1,3,NULL,NULL,NULL,b1,BlockList1,94,93,2,94,e,NULL,NULL,NULL,NULL,NULL,NULL,NULL,NULL,NULL,TrialProc4,b1trails1,blue,e,1,e,414
Individual,1,1,"<?xml version=""1.0""?>\n<Clock xmlns:dt=""urn:schemas-microsoft-com:datatypes""><Description dt:dt=""string"">E-Prime Primary Realtime Clock</Description><StartTime><Timestamp dt:dt=""int"">0</Timestamp><DateUtc dt:dt=""string"">2017-10-12T11:37:33Z</DateUtc></StartTime><FrequencyChanges><FrequencyChange><Frequency dt:dt=""r8"">2923154</Frequency><Timestamp dt:dt=""r8"">766478057744</Timestamp><Current dt:dt=""r8"">0</Current><DateUtc dt:dt=""string"">2017-10-12T11:37:33Z</DateUtc></FrequencyChange></FrequencyChanges></Clock>\n",Individual-001-1,59.955,?,1.0.0.485,1,1974451564,Professional,2.0.10.353,2.0.10.353,10/12/2017,12/10/2017 11:37,12:37:33,2.0.10.248,1,1,1,1,M1,List1,3,3,1,3,NULL,NULL,NULL,b1,BlockList1,95,28,2,95,w,NULL,NULL,NULL,NULL,NULL,NULL,NULL,NULL,NULL,TrialProc4,b1trails1,red,e,1,w,608
Individual,1,1,"<?xml version=""1.0""?>\n<Clock xmlns:dt=""urn:schemas-microsoft-com:datatypes""><Description dt:dt=""string"">E-Prime Primary Realtime Clock</Description><StartTime><Timestamp dt:dt=""int"">0</Timestamp><DateUtc dt:dt=""string"">2017-10-12T11:37:33Z</DateUtc></StartTime><FrequencyChanges><FrequencyChange><Frequency dt:dt=""r8"">2923154</Frequency><Timestamp dt:dt=""r8"">766478057744</Timestamp><Current dt:dt=""r8"">0</Current><DateUtc dt:dt=""string"">2017-10-12T11:37:33Z</DateUtc></FrequencyChange></FrequencyChanges></Clock>\n",Individual-001-1,59.955,?,1.0.0.485,1,1974451564,Professional,2.0.10.353,2.0.10.353,10/12/2017,12/10/2017 11:37,12:37:33,2.0.10.248,1,1,1,1,M1,List1,3,3,1,3,NULL,NULL,NULL,b1,BlockList1,96,71,2,96,w,NULL,NULL,NULL,NULL,NULL,NULL,NULL,NULL,NULL,TrialProc4,b1trails1,red,w,1,w,564
Individual,1,1,"<?xml version=""1.0""?>\n<Clock xmlns:dt=""urn:schemas-microsoft-com:datatypes""><Description dt:dt=""string"">E-Prime Primary Realtime Clock</Description><StartTime><Timestamp dt:dt=""int"">0</Timestamp><DateUtc dt:dt=""string"">2017-10-12T11:37:33Z</DateUtc></StartTime><FrequencyChanges><FrequencyChange><Frequency dt:dt=""r8"">2923154</Frequency><Timestamp dt:dt=""r8"">766478057744</Timestamp><Current dt:dt=""r8"">0</Current><DateUtc dt:dt=""string"">2017-10-12T11:37:33Z</DateUtc></FrequencyChange></FrequencyChanges></Clock>\n",Individual-001-1,59.955,?,1.0.0.485,1,1974451564,Professional,2.0.10.353,2.0.10.353,10/12/2017,12/10/2017 11:37,12:37:33,2.0.10.248,2,2,1,2,M2,List1,1,NULL,NULL,NULL,1,1,1,PracTrial2,BlockList2,1,NULL,NULL,NULL,e,NULL,NULL,NULL,NULL,NULL,NULL,16,2,1,TrialProc,PracTrials2,red,e,1,e,446
Individual,1,1,"<?xml version=""1.0""?>\n<Clock xmlns:dt=""urn:schemas-microsoft-com:datatypes""><Description dt:dt=""string"">E-Prime Primary Realtime Clock</Description><StartTime><Timestamp dt:dt=""int"">0</Timestamp><DateUtc dt:dt=""string"">2017-10-12T11:37:33Z</DateUtc></StartTime><FrequencyChanges><FrequencyChange><Frequency dt:dt=""r8"">2923154</Frequency><Timestamp dt:dt=""r8"">766478057744</Timestamp><Current dt:dt=""r8"">0</Current><DateUtc dt:dt=""string"">2017-10-12T11:37:33Z</DateUtc></FrequencyChange></FrequencyChanges></Clock>\n",Individual-001-1,59.955,?,1.0.0.485,1,1974451564,Professional,2.0.10.353,2.0.10.353,10/12/2017,12/10/2017 11:37,12:37:33,2.0.10.248,2,2,1,2,M2,List1,1,NULL,NULL,NULL,1,1,1,PracTrial2,BlockList2,2,NULL,NULL,NULL,w,NULL,NULL,NULL,NULL,NULL,NULL,2,2,2,TrialProc,PracTrials2,blue,w,1,w,424
Individual,1,1,"<?xml version=""1.0""?>\n<Clock xmlns:dt=""urn:schemas-microsoft-com:datatypes""><Description dt:dt=""string"">E-Prime Primary Realtime Clock</Description><StartTime><Timestamp dt:dt=""int"">0</Timestamp><DateUtc dt:dt=""string"">2017-10-12T11:37:33Z</DateUtc></StartTime><FrequencyChanges><FrequencyChange><Frequency dt:dt=""r8"">2923154</Frequency><Timestamp dt:dt=""r8"">766478057744</Timestamp><Current dt:dt=""r8"">0</Current><DateUtc dt:dt=""string"">2017-10-12T11:37:33Z</DateUtc></FrequencyChange></FrequencyChanges></Clock>\n",Individual-001-1,59.955,?,1.0.0.485,1,1974451564,Professional,2.0.10.353,2.0.10.353,10/12/2017,12/10/2017 11:37,12:37:33,2.0.10.248,2,2,1,2,M2,List1,1,NULL,NULL,NULL,1,1,1,PracTrial2,BlockList2,3,NULL,NULL,NULL,w,NULL,NULL,NULL,NULL,NULL,NULL,5,2,3,TrialProc,PracTrials2,blue,e,1,w,487
Individual,1,1,"<?xml version=""1.0""?>\n<Clock xmlns:dt=""urn:schemas-microsoft-com:datatypes""><Description dt:dt=""string"">E-Prime Primary Realtime Clock</Description><StartTime><Timestamp dt:dt=""int"">0</Timestamp><DateUtc dt:dt=""string"">2017-10-12T11:37:33Z</DateUtc></StartTime><FrequencyChanges><FrequencyChange><Frequency dt:dt=""r8"">2923154</Frequency><Timestamp dt:dt=""r8"">766478057744</Timestamp><Current dt:dt=""r8"">0</Current><DateUtc dt:dt=""string"">2017-10-12T11:37:33Z</DateUtc></FrequencyChange></FrequencyChanges></Clock>\n",Individual-001-1,59.955,?,1.0.0.485,1,1974451564,Professional,2.0.10.353,2.0.10.353,10/12/2017,12/10/2017 11:37,12:37:33,2.0.10.248,2,2,1,2,M2,List1,1,NULL,NULL,NULL,1,1,1,PracTrial2,BlockList2,4,NULL,NULL,NULL,w,NULL,NULL,NULL,NULL,NULL,NULL,14,2,4,TrialProc,PracTrials2,blue,w,1,w,360
Individual,1,1,"<?xml version=""1.0""?>\n<Clock xmlns:dt=""urn:schemas-microsoft-com:datatypes""><Description dt:dt=""string"">E-Prime Primary Realtime Clock</Description><StartTime><Timestamp dt:dt=""int"">0</Timestamp><DateUtc dt:dt=""string"">2017-10-12T11:37:33Z</DateUtc></StartTime><FrequencyChanges><FrequencyChange><Frequency dt:dt=""r8"">2923154</Frequency><Timestamp dt:dt=""r8"">766478057744</Timestamp><Current dt:dt=""r8"">0</Current><DateUtc dt:dt=""string"">2017-10-12T11:37:33Z</DateUtc></FrequencyChange></FrequencyChanges></Clock>\n",Individual-001-1,59.955,?,1.0.0.485,1,1974451564,Professional,2.0.10.353,2.0.10.353,10/12/2017,12/10/2017 11:37,12:37:33,2.0.10.248,2,2,1,2,M2,List1,1,NULL,NULL,NULL,1,1,1,PracTrial2,BlockList2,5,NULL,NULL,NULL,e,NULL,NULL,NULL,NULL,NULL,NULL,12,2,5,TrialProc,PracTrials2,red,e,1,e,373
Individual,1,1,"<?xml version=""1.0""?>\n<Clock xmlns:dt=""urn:schemas-microsoft-com:datatypes""><Description dt:dt=""string"">E-Prime Primary Realtime Clock</Description><StartTime><Timestamp dt:dt=""int"">0</Timestamp><DateUtc dt:dt=""string"">2017-10-12T11:37:33Z</DateUtc></StartTime><FrequencyChanges><FrequencyChange><Frequency dt:dt=""r8"">2923154</Frequency><Timestamp dt:dt=""r8"">766478057744</Timestamp><Current dt:dt=""r8"">0</Current><DateUtc dt:dt=""string"">2017-10-12T11:37:33Z</DateUtc></FrequencyChange></FrequencyChanges></Clock>\n",Individual-001-1,59.955,?,1.0.0.485,1,1974451564,Professional,2.0.10.353,2.0.10.353,10/12/2017,12/10/2017 11:37,12:37:33,2.0.10.248,2,2,1,2,M2,List1,1,NULL,NULL,NULL,1,1,1,PracTrial2,BlockList2,6,NULL,NULL,NULL,w,NULL,NULL,NULL,NULL,NULL,NULL,10,2,6,TrialProc,PracTrials2,blue,w,1,w,463
