ExperimentName,Subject,Session,Clock.Information,DataFile.Basename,Display1.RefreshRate,Display2.RefreshRate,ExperimentVersion,Group,RandomSeed,RuntimeCapabilities,RuntimeVersion,RuntimeVersionExpected,SessionDate,SessionStartDateTimeUtc,SessionTime,StudioVersion,Block,List1,List1.Cycle,List1.Sample,Procedure[Block],Running[Block],Trial,BlockList1,BlockList1.Cycle,BlockList1.Sample,BlockList2,BlockList2.Cycle,BlockList2.Sample,Procedure[Trial],Running[Trial],SubTrial,b1trails1,b1trails1.Cycle,b1trails1.Sample,CorrectSubj1,List2,List2.Cycle,List2.Sample,PracTrials1,PracTrials1.Cycle,PracTrials1.Sample,PracTrials2,PracTrials2.Cycle,PracTrials2.Sample,Procedure[SubTrial],Running[SubTrial],Screen1_Obj_Colour,Screen_1_Obj_Pos,Subject1ACC,Subject1RESP,Subject1RT
Individual,3,1,"<?xml version=""1.0""?>\n<Clock xmlns:dt=""urn:schemas-microsoft-com:datatypes""><Description dt:dt=""string"">E-Prime Primary Realtime Clock</Description><StartTime><Timestamp dt:dt=""int"">0</Timestamp><DateUtc dt:dt=""string"">2017-10-10T16:39:40Z</DateUtc></StartTime><FrequencyChanges><FrequencyChange><Frequency dt:dt=""r8"">2923154</Frequency><Timestamp dt:dt=""r8"">314382068894</Timestamp><Current dt:dt=""r8"">0</Current><DateUtc dt:dt=""string"">2017-10-10T16:39:40Z</DateUtc></FrequencyChange></FrequencyChanges></Clock>\n",Individual-003-1,59.955,?,1.0.0.476,1,850042737,Professional,2.0.10.353,2.0.10.353,10/10/2017,10/10/2017 16:39,17:39:41,2.0.10.248,1,1,1,1,M1,List1,1,1,1,1,NULL,NULL,NULL,Prac1,BlockList1,1,NULL,NULL,NULL,w,NULL,NULL,NULL,3,2,1,NULL,NULL,NULL,TrialProc47,PracTrials1,red,w,1,w,607
Individual,3,1,"<?xml version=""1.0""?>\n<Clock xmlns:dt=""urn:schemas-microsoft-com:datatypes""><Description dt:dt=""string"">E-Prime Primary Realtime Clock</Description><StartTime><Timestamp dt:dt=""int"">0</Timestamp><DateUtc dt:dt=""string"">2017-10-10T16:39:40Z</DateUtc></StartTime><FrequencyChanges><FrequencyChange><Frequency dt:dt=""r8"">2923154</Frequency><Timestamp dt:dt=""r8"">314382068894</Timestamp><Current dt:dt=""r8"">0</Current><DateUtc dt:dt=""string"">2017-10-10T16:39:40Z</DateUtc></FrequencyChange></FrequencyChanges></Clock>\n",Individual-003-1,59.955,?,1.0.0.476,1,850042737,Professional,2.0.10.353,2.0.10.353,10/10/2017,10/10/2017 16:39,17:39:41,2.0.10.248,1,1,1,1,M1,List1,1,1,1,1,NULL,NULL,NULL,Prac1,BlockList1,2,NULL,NULL,NULL,w,NULL,NULL,NULL,7,2,2,NULL,NULL,NULL,TrialProc47,PracTrials1,red,w,1,w,484
Individual,3,1,"<?xml version=""1.0""?>\n<Clock xmlns:dt=""urn:schemas-microsoft-com:datatypes""><Description dt:dt=""string"">E-Prime Primary Realtime Clock</Description><StartTime><Timestamp dt:dt=""int"">0</Timestamp><DateUtc dt:dt=""string"">2017-10-10T16:39:40Z</DateUtc></StartTime><FrequencyChanges><FrequencyChange><Frequency dt:dt=""r8"">2923154</Frequency><Timestamp dt:dt=""r8"">314382068894</Timestamp><Current dt:dt=""r8"">0</Current><DateUtc dt:dt=""string"">2017-10-10T16:39:40Z</DateUtc></FrequencyChange></FrequencyChanges></Clock>\n",Individual-003-1,59.955,?,1.0.0.476,1,850042737,Professional,2.0.10.353,2.0.10.353,10/10/2017,10/10/2017 16:39,17:39:41,2.0.10.248,1,1,1,1,M1,List1,1,1,1,1,NULL,NULL,NULL,Prac1,BlockList1,3,NULL,NULL,NULL,e,NULL,NULL,NULL,14,2,3,NULL,NULL,NULL,TrialProc47,PracTrials1,blue,w,1,e,305
Individual,3,1,"<?xml version=""1.0""?>\n<Clock xmlns:dt=""urn:schemas-microsoft-com:datatypes""><Description dt:dt=""string"">E-Prime Primary Realtime Clock</Description><StartTime><Timestamp dt:dt=""int"">0</Timestamp><DateUtc dt:dt=""string"">2017-10-10T16:39:40Z</DateUtc></StartTime><FrequencyChanges><FrequencyChange><Frequency dt:dt=""r8"">2923154</Frequency><Timestamp dt:dt=""r8"">314382068894</Timestamp><Current dt:dt=""r8"">0</Current><DateUtc dt:dt=""string"">2017-10-10T16:39:40Z</DateUtc></FrequencyChange></FrequencyChanges></Clock>\n",Individual-003-1,59.955,?,1.0.0.476,1,850042737,Professional,2.0.10.353,2.0.10.353,10/10/2017,10/10/2017 16:39,17:39:41,2.0.10.248,1,1,1,1,M1,List1,1,1,1,1,NULL,NULL,NULL,Prac1,BlockList1,4,NULL,NULL,NULL,w,NULL,NULL,NULL,4,2,4,NULL,NULL,NULL,TrialProc47,PracTrials1,red,e,1,w,407
Individual,3,1,"<?xml version=""1.0""?>\n<Clock xmlns:dt=""urn:schemas-microsoft-com:datatypes""><Description dt:dt=""string"">E-Prime Primary Realtime Clock</Description><StartTime><Timestamp dt:dt=""int"">0</Timestamp><DateUtc dt:dt=""string"">2017-10-10T16:39:40Z</DateUtc></StartTime><FrequencyChanges><FrequencyChange><Frequency dt:dt=""r8"">2923154</Frequency><Timestamp dt:dt=""r8"">314382068894</Timestamp><Current dt:dt=""r8"">0</Current><DateUtc dt:dt=""string"">2017-10-10T16:39:40Z</DateUtc></FrequencyChange></FrequencyChanges></Clock>\n",Individual-003-1,59.955,?,1.0.0.476,1,850042737,Professional,2.0.10.353,2.0.10.353,10/10/2017,10/10/2017 16:39,17:39:41,2.0.10.248,1,1,1,1,M1,List1,1,1,1,1,NULL,NULL,NULL,Prac1,BlockList1,5,NULL,NULL,NULL,w,NULL,NULL,NULL,12,2,5,NULL,NULL,NULL,TrialProc47,PracTrials1,red,e,1,w,541
Individual,3,1,"<?xml version=""1.0""?>\n<Clock xmlns:dt=""urn:schemas-microsoft-com:datatypes""><Description dt:dt=""string"">E-Prime Primary Realtime Clock</Description><StartTime><Timestamp dt:dt=""int"">0</Timestamp><DateUtc dt:dt=""string"">2017-10-10T16:39:40Z</DateUtc></StartTime><FrequencyChanges><FrequencyChange><Frequency dt:dt=""r8"">2923154</Frequency><Timestamp dt:dt=""r8"">314382068894</Timestamp><Current dt:dt=""r8"">0</Current><DateUtc dt:dt=""string"">2017-10-10T16:39:40Z</DateUtc></FrequencyChange></FrequencyChanges></Clock>\n",Individual-003-1,59.955,?,1.0.0.476,1,850042737,Professional,2.0.10.353,2.0.10.353,10/10/2017,10/10/2017 16:39,17:39:41,2.0.10.248,1,1,1,1,M1,List1,1,1,1,1,NULL,NULL,NULL,Prac1,BlockList1,6,NULL,NULL,NULL,e,NULL,NULL,NULL,2,2,6,NULL,NULL,NULL,TrialProc47,PracTrials1,blue,w,1,e,638
Individual,3,1,"<?xml version=""1.0""?>\n<Clock xmlns:dt=""urn:schemas-microsoft-com:datatypes""><Description dt:dt=""string"">E-Prime Primary Realtime Clock</Description><StartTime><Timestamp dt:dt=""int"">0</Timestamp><DateUtc dt:dt=""string"">2017-10-10T16:39:40Z</DateUtc></StartTime><FrequencyChanges><FrequencyChange><Frequency dt:dt=""r8"">2923154</Frequency><Timestamp dt:dt=""r8"">314382068894</Timestamp><Current dt:dt=""r8"">0</Current><DateUtc dt:dt=""string"">2017-10-10T16:39:40Z</DateUtc></FrequencyChange></FrequencyChanges></Clock>\n",Individual-003-1,59.955,?,1.0.0.476,1,850042737,Professional,2.0.10.353,2.0.10.353,10/10/2017,10/10/2017 16:39,17:39:41,2.0.10.248,1,1,1,1,M1,List1,1,1,1,1,NULL,NULL,NULL,Prac1,BlockList1,7,NULL,NULL,NULL,w,NULL,NULL,NULL,16,2,7,NULL,NULL,NULL,TrialProc47,PracTrials1,red,e,1,w,514
Individual,3,1,"<?xml version=""1.0""?>\n<Clock xmlns:dt=""urn:schemas-microsoft-com:datatypes""><Description dt:dt=""string"">E-Prime Primary Realtime Clock</Description><StartTime><Timestamp dt:dt=""int"">0</Timestamp><DateUtc dt:dt=""string"">2017-10-10T16:39:40Z</DateUtc></StartTime><FrequencyChanges><FrequencyChange><Frequency dt:dt=""r8"">2923154</Frequency><Timestamp dt:dt=""r8"">314382068894</Timestamp><Current dt:dt=""r8"">0</Current><DateUtc dt:dt=""string"">2017-10-10T16:39:40Z</DateUtc></FrequencyChange></FrequencyChanges></Clock>\n",Individual-003-1,59.955,?,1.0.0.476,1,850042737,Professional,2.0.10.353,2.0.10.353,10/10/2017,10/10/2017 16:39,17:39:41,2.0.10.248,1,1,1,1,M1,List1,1,1,1,1,NULL,NULL,NULL,Prac1,BlockList1,8,NULL,NULL,NULL,w,NULL,NULL,NULL,11,2,8,NULL,NULL,NULL,TrialProc47,PracTrials1,red,w,1,w,484
Individual,3,1,"<?xml version=""1.0""?>\n<Clock xmlns:dt=""urn:schemas-microsoft-com:datatypes""><Description dt:dt=""string"">E-Prime Primary Realtime Clock</Description><StartTime><Timestamp dt:dt=""int"">0</Timestamp><DateUtc dt:dt=""string"">2017-10-10T16:39:40Z</DateUtc></StartTime><FrequencyChanges><FrequencyChange><Frequency dt:dt=""r8"">2923154</Frequency><Timestamp dt:dt=""r8"">314382068894</Timestamp><Current dt:dt=""r8"">0</Current><DateUtc dt:dt=""string"">2017-10-10T16:39:40Z</DateUtc></FrequencyChange></FrequencyChanges></Clock>\n",Individual-003-1,59.955,?,1.0.0.476,1,850042737,Professional,2.0.10.353,2.0.10.353,10/10/2017,10/10/2017 16:39,17:39:41,2.0.10.248,1,1,1,1,M1,List1,1,1,1,1,NULL,NULL,NULL,Prac1,BlockList1,9,NULL,NULL,NULL,e,NULL,NULL,NULL,6,2,9,NULL,NULL,NULL,TrialProc47,PracTrials1,blue,w,1,e,549
Individual,3,1,"<?xml version=""1.0""?>\n<Clock xmlns:dt=""urn:schemas-microsoft-com:datatypes""><Description dt:dt=""string"">E-Prime Primary Realtime Clock</Description><StartTime><Timestamp dt:dt=""int"">0</Timestamp><DateUtc dt:dt=""string"">2017-10-10T16:39:40Z</DateUtc></StartTime><FrequencyChanges><FrequencyChange><Frequency dt:dt=""r8"">2923154</Frequency><Timestamp dt:dt=""r8"">314382068894</Timestamp><Current dt:dt=""r8"">0</Current><DateUtc dt:dt=""string"">2017-10-10T16:39:40Z</DateUtc></FrequencyChange></FrequencyChanges></Clock>\n",Individual-003-1,59.955,?,1.0.0.476,1,850042737,Professional,2.0.10.353,2.0.10.353,10/10/2017,10/10/2017 16:39,17:39:41,2.0.10.248,1,1,1,1,M1,List1,1,1,1,1,NULL,NULL,NULL,Prac1,BlockList1,10,NULL,NULL,NULL,w,NULL,NULL,NULL,8,2,10,NULL,NULL,NULL,TrialProc47,PracTrials1,red,e,1,w,508
Individual,3,1,"<?xml version=""1.0""?>\n<Clock xmlns:dt=""urn:schemas-microsoft-com:datatypes""><Description dt:dt=""string"">E-Prime Primary Realtime Clock</Description><StartTime><Timestamp dt:dt=""int"">0</Timestamp><DateUtc dt:dt=""string"">2017-10-10T16:39:40Z</DateUtc></StartTime><FrequencyChanges><FrequencyChange><Frequency dt:dt=""r8"">2923154</Frequency><Timestamp dt:dt=""r8"">314382068894</Timestamp><Current dt:dt=""r8"">0</Current><DateUtc dt:dt=""string"">2017-10-10T16:39:40Z</DateUtc></FrequencyChange></FrequencyChanges></Clock>\n",Individual-003-1,59.955,?,1.0.0.476,1,850042737,Professional,2.0.10.353,2.0.10.353,10/10/2017,10/10/2017 16:39,17:39:41,2.0.10.248,1,1,1,1,M1,List1,1,1,1,1,NULL,NULL,NULL,Prac1,BlockList1,11,NULL,NULL,NULL,e,NULL,NULL,NULL,1,2,11,NULL,NULL,NULL,TrialProc47,PracTrials1,blue,e,1,e,530
Individual,3,1,"<?xml version=""1.0""?>\n<Clock xmlns:dt=""urn:schemas-microsoft-com:datatypes""><Description dt:dt=""string"">E-Prime Primary Realtime Clock</Description><StartTime><Timestamp dt:dt=""int"">0</Timestamp><DateUtc dt:dt=""string"">2017-10-10T16:39:40Z</DateUtc></StartTime><FrequencyChanges><FrequencyChange><Frequency dt:dt=""r8"">2923154</Frequency><Timestamp dt:dt=""r8"">314382068894</Timestamp><Current dt:dt=""r8"">0</Current><DateUtc dt:dt=""string"">2017-10-10T16:39:40Z</DateUtc></FrequencyChange></FrequencyChanges></Clock>\n",Individual-003-1,59.955,?,1.0.0.476,1,850042737,Professional,2.0.10.353,2.0.10.353,10/10/2017,10/10/2017 16:39,17:39:41,2.0.10.248,1,1,1,1,M1,List1,1,1,1,1,NULL,NULL,NULL,Prac1,BlockList1,12,NULL,NULL,NULL,e,NULL,NULL,NULL,5,2,12,NULL,NULL,NULL,TrialProc47,PracTrials1,blue,e,1,e,582
Individual,3,1,"<?xml version=""1.0""?>\n<Clock xmlns:dt=""urn:schemas-microsoft-com:datatypes""><Description dt:dt=""string"">E-Prime Primary Realtime Clock</Description><StartTime><Timestamp dt:dt=""int"">0</Timestamp><DateUtc dt:dt=""string"">2017-10-10T16:39:40Z</DateUtc></StartTime><FrequencyChanges><FrequencyChange><Frequency dt:dt=""r8"">2923154</Frequency><Timestamp dt:dt=""r8"">314382068894</Timestamp><Current dt:dt=""r8"">0</Current><DateUtc dt:dt=""string"">2017-10-10T16:39:40Z</DateUtc></FrequencyChange></FrequencyChanges></Clock>\n",Individual-003-1,59.955,?,1.0.0.476,1,850042737,Professional,2.0.10.353,2.0.10.353,10/10/2017,10/10/2017 16:39,17:39:41,2.0.10.248,1,1,1,1,M1,List1,1,1,1,1,NULL,NULL,NULL,Prac1,BlockList1,13,NULL,NULL,NULL,w,NULL,NULL,NULL,15,2,13,NULL,NULL,NULL,TrialProc47,PracTrials1,red,w,1,w,433
Individual,3,1,"<?xml version=""1.0""?>\n<Clock xmlns:dt=""urn:schemas-microsoft-com:datatypes""><Description dt:dt=""string"">E-Prime Primary Realtime Clock</Description><StartTime><Timestamp dt:dt=""int"">0</Timestamp><DateUtc dt:dt=""string"">2017-10-10T16:39:40Z</DateUtc></StartTime><FrequencyChanges><FrequencyChange><Frequency dt:dt=""r8"">2923154</Frequency><Timestamp dt:dt=""r8"">314382068894</Timestamp><Current dt:dt=""r8"">0</Current><DateUtc dt:dt=""string"">2017-10-10T16:39:40Z</DateUtc></FrequencyChange></FrequencyChanges></Clock>\n",Individual-003-1,59.955,?,1.0.0.476,1,850042737,Professional,2.0.10.353,2.0.10.353,10/10/2017,10/10/2017 16:39,17:39:41,2.0.10.248,1,1,1,1,M1,List1,1,1,1,1,NULL,NULL,NULL,Prac1,BlockList1,14,NULL,NULL,NULL,e,NULL,NULL,NULL,9,2,14,NULL,NULL,NULL,TrialProc47,PracTrials1,blue,e,1,e,671
Individual,3,1,"<?xml version=""1.0""?>\n<Clock xmlns:dt=""urn:schemas-microsoft-com:datatypes""><Description dt:dt=""string"">E-Prime Primary Realtime Clock</Description><StartTime><Timestamp dt:dt=""int"">0</Timestamp><DateUtc dt:dt=""string"">2017-10-10T16:39:40Z</DateUtc></StartTime><FrequencyChanges><FrequencyChange><Frequency dt:dt=""r8"">2923154</Frequency><Timestamp dt:dt=""r8"">314382068894</Timestamp><Current dt:dt=""r8"">0</Current><DateUtc dt:dt=""string"">2017-10-10T16:39:40Z</DateUtc></FrequencyChange></FrequencyChanges></Clock>\n",Individual-003-1,59.955,?,1.0.0.476,1,850042737,Professional,2.0.10.353,2.0.10.353,10/10/2017,10/10/2017 16:39,17:39:41,2.0.10.248,1,1,1,1,M1,List1,1,1,1,1,NULL,NULL,NULL,Prac1,BlockList1,15,NULL,NULL,NULL,e,NULL,NULL,NULL,13,2,15,NULL,NULL,NULL,TrialProc47,PracTrials1,blue,e,1,e,349
Individual,3,1,"<?xml version=""1.0""?>\n<Clock xmlns:dt=""urn:schemas-microsoft-com:datatypes""><Description dt:dt=""string"">E-Prime Primary Realtime Clock</Description><StartTime><Timestamp dt:dt=""int"">0</Timestamp><DateUtc dt:dt=""string"">2017-10-10T16:39:40Z</DateUtc></StartTime><FrequencyChanges><FrequencyChange><Frequency dt:dt=""r8"">2923154</Frequency><Timestamp dt:dt=""r8"">314382068894</Timestamp><Current dt:dt=""r8"">0</Current><DateUtc dt:dt=""string"">2017-10-10T16:39:40Z</DateUtc></FrequencyChange></FrequencyChanges></Clock>\n",Individual-003-1,59.955,?,1.0.0.476,1,850042737,Professional,2.0.10.353,2.0.10.353,10/10/2017,10/10/2017 16:39,17:39:41,2.0.10.248,1,1,1,1,M1,List1,1,1,1,1,NULL,NULL,NULL,Prac1,BlockList1,16,NULL,NULL,NULL,e,NULL,NULL,NULL,10,2,16,NULL,NULL,NULL,TrialProc47,PracTrials1,blue,w,1,e,582
Individual,3,1,"<?xml version=""1.0""?>\n<Clock xmlns:dt=""urn:schemas-microsoft-com:datatypes""><Description dt:dt=""string"">E-Prime Primary Realtime Clock</Description><StartTime><Timestamp dt:dt=""int"">0</Timestamp><DateUtc dt:dt=""string"">2017-10-10T16:39:40Z</DateUtc></StartTime><FrequencyChanges><FrequencyChange><Frequency dt:dt=""r8"">2923154</Frequency><Timestamp dt:dt=""r8"">314382068894</Timestamp><Current dt:dt=""r8"">0</Current><DateUtc dt:dt=""string"">2017-10-10T16:39:40Z</DateUtc></FrequencyChange></FrequencyChanges></Clock>\n",Individual-003-1,59.955,?,1.0.0.476,1,850042737,Professional,2.0.10.353,2.0.10.353,10/10/2017,10/10/2017 16:39,17:39:41,2.0.10.248,1,1,1,1,M1,List1,2,2,1,2,NULL,NULL,NULL,InstruProc,BlockList1,NULL,NULL,NULL,NULL,NULL,NULL,NULL,NULL,NULL,NULL,NULL,NULL,NULL,NULL,NULL,NULL,NULL,NULL,NULL,NULL,NULL
Individual,3,1,"<?xml version=""1.0""?>\n<Clock xmlns:dt=""urn:schemas-microsoft-com:datatypes""><Description dt:dt=""string"">E-Prime Primary Realtime Clock</Description><StartTime><Timestamp dt:dt=""int"">0</Timestamp><DateUtc dt:dt=""string"">2017-10-10T16:39:40Z</DateUtc></StartTime><FrequencyChanges><FrequencyChange><Frequency dt:dt=""r8"">2923154</Frequency><Timestamp dt:dt=""r8"">314382068894</Timestamp><Current dt:dt=""r8"">0</Current><DateUtc dt:dt=""string"">2017-10-10T16:39:40Z</DateUtc></FrequencyChange></FrequencyChanges></Clock>\n",Individual-003-1,59.955,?,1.0.0.476,1,850042737,Professional,2.0.10.353,2.0.10.353,10/10/2017,10/10/2017 16:39,17:39:41,2.0.10.248,1,1,1,1,M1,List1,3,3,1,3,NULL,NULL,NULL,b1,BlockList1,1,19,2,1,w,NULL,NULL,NULL,NULL,NULL,NULL,NULL,NULL,NULL,TrialProc4,b1trails1,red,w,1,w,631
Individual,3,1,"<?xml version=""1.0""?>\n<Clock xmlns:dt=""urn:schemas-microsoft-com:datatypes""><Description dt:dt=""string"">E-Prime Primary Realtime Clock</Description><StartTime><Timestamp dt:dt=""int"">0</Timestamp><DateUtc dt:dt=""string"">2017-10-10T16:39:40Z</DateUtc></StartTime><FrequencyChanges><FrequencyChange><Frequency dt:dt=""r8"">2923154</Frequency><Timestamp dt:dt=""r8"">314382068894</Timestamp><Current dt:dt=""r8"">0</Current><DateUtc dt:dt=""string"">2017-10-10T16:39:40Z</DateUtc></FrequencyChange></FrequencyChanges></Clock>\n",Individual-003-1,59.955,?,1.0.0.476,1,850042737,Professional,2.0.10.353,2.0.10.353,10/10/2017,10/10/2017 16:39,17:39:41,2.0.10.248,1,1,1,1,M1,List1,3,3,1,3,NULL,NULL,NULL,b1,BlockList1,2,57,2,2,e,NULL,NULL,NULL,NULL,NULL,NULL,NULL,NULL,NULL,TrialProc4,b1trails1,blue,e,1,e,548
Individual,3,1,"<?xml version=""1.0""?>\n<Clock xmlns:dt=""urn:schemas-microsoft-com:datatypes""><Description dt:dt=""string"">E-Prime Primary Realtime Clock</Description><StartTime><Timestamp dt:dt=""int"">0</Timestamp><DateUtc dt:dt=""string"">2017-10-10T16:39:40Z</DateUtc></StartTime><FrequencyChanges><FrequencyChange><Frequency dt:dt=""r8"">2923154</Frequency><Timestamp dt:dt=""r8"">314382068894</Timestamp><Current dt:dt=""r8"">0</Current><DateUtc dt:dt=""string"">2017-10-10T16:39:40Z</DateUtc></FrequencyChange></FrequencyChanges></Clock>\n",Individual-003-1,59.955,?,1.0.0.476,1,850042737,Professional,2.0.10.353,2.0.10.353,10/10/2017,10/10/2017 16:39,17:39:41,2.0.10.248,1,1,1,1,M1,List1,3,3,1,3,NULL,NULL,NULL,b1,BlockList1,3,90,2,3,e,NULL,NULL,NULL,NULL,NULL,NULL,NULL,NULL,NULL,TrialProc4,b1trails1,blue,w,1,e,543
Individual,3,1,"<?xml version=""1.0""?>\n<Clock xmlns:dt=""urn:schemas-microsoft-com:datatypes""><Description dt:dt=""string"">E-Prime Primary Realtime Clock</Description><StartTime><Timestamp dt:dt=""int"">0</Timestamp><DateUtc dt:dt=""string"">2017-10-10T16:39:40Z</DateUtc></StartTime><FrequencyChanges><FrequencyChange><Frequency dt:dt=""r8"">2923154</Frequency><Timestamp dt:dt=""r8"">314382068894</Timestamp><Current dt:dt=""r8"">0</Current><DateUtc dt:dt=""string"">2017-10-10T16:39:40Z</DateUtc></FrequencyChange></FrequencyChanges></Clock>\n",Individual-003-1,59.955,?,1.0.0.476,1,850042737,Professional,2.0.10.353,2.0.10.353,10/10/2017,10/10/2017 16:39,17:39:41,2.0.10.248,1,1,1,1,M1,List1,3,3,1,3,NULL,NULL,NULL,b1,BlockList1,4,63,2,4,w,NULL,NULL,NULL,NULL,NULL,NULL,NULL,NULL,NULL,TrialProc4,b1trails1,red,w,1,w,337
Individual,3,1,"<?xml version=""1.0""?>\n<Clock xmlns:dt=""urn:schemas-microsoft-com:datatypes""><Description dt:dt=""string"">E-Prime Primary Realtime Clock</Description><StartTime><Timestamp dt:dt=""int"">0</Timestamp><DateUtc dt:dt=""string"">2017-10-10T16:39:40Z</DateUtc></StartTime><FrequencyChanges><FrequencyChange><Frequency dt:dt=""r8"">2923154</Frequency><Timestamp dt:dt=""r8"">314382068894</Timestamp><Current dt:dt=""r8"">0</Current><DateUtc dt:dt=""string"">2017-10-10T16:39:40Z</DateUtc></FrequencyChange></FrequencyChanges></Clock>\n",Individual-003-1,59.955,?,1.0.0.476,1,850042737,Professional,2.0.10.353,2.0.10.353,10/10/2017,10/10/2017 16:39,17:39:41,2.0.10.248,1,1,1,1,M1,List1,3,3,1,3,NULL,NULL,NULL,b1,BlockList1,5,31,2,5,w,NULL,NULL,NULL,NULL,NULL,NULL,NULL,NULL,NULL,TrialProc4,b1trails1,red,w,1,w,308
Individual,3,1,"<?xml version=""1.0""?>\n<Clock xmlns:dt=""urn:schemas-microsoft-com:datatypes""><Description dt:dt=""string"">E-Prime Primary Realtime Clock</Description><StartTime><Timestamp dt:dt=""int"">0</Timestamp><DateUtc dt:dt=""string"">2017-10-10T16:39:40Z</DateUtc></StartTime><FrequencyChanges><FrequencyChange><Frequency dt:dt=""r8"">2923154</Frequency><Timestamp dt:dt=""r8"">314382068894</Timestamp><Current dt:dt=""r8"">0</Current><DateUtc dt:dt=""string"">2017-10-10T16:39:40Z</DateUtc></FrequencyChange></FrequencyChanges></Clock>\n",Individual-003-1,59.955,?,1.0.0.476,1,850042737,Professional,2.0.10.353,2.0.10.353,10/10/2017,10/10/2017 16:39,17:39:41,2.0.10.248,1,1,1,1,M1,List1,3,3,1,3,NULL,NULL,NULL,b1,BlockList1,6,71,2,6,w,NULL,NULL,NULL,NULL,NULL,NULL,NULL,NULL,NULL,TrialProc4,b1trails1,red,w,1,w,400
Individual,3,1,"<?xml version=""1.0""?>\n<Clock xmlns:dt=""urn:schemas-microsoft-com:datatypes""><Description dt:dt=""string"">E-Prime Primary Realtime Clock</Description><StartTime><Timestamp dt:dt=""int"">0</Timestamp><DateUtc dt:dt=""string"">2017-10-10T16:39:40Z</DateUtc></StartTime><FrequencyChanges><FrequencyChange><Frequency dt:dt=""r8"">2923154</Frequency><Timestamp dt:dt=""r8"">314382068894</Timestamp><Current dt:dt=""r8"">0</Current><DateUtc dt:dt=""string"">2017-10-10T16:39:40Z</DateUtc></FrequencyChange></FrequencyChanges></Clock>\n",Individual-003-1,59.955,?,1.0.0.476,1,850042737,Professional,2.0.10.353,2.0.10.353,10/10/2017,10/10/2017 16:39,17:39:41,2.0.10.248,1,1,1,1,M1,List1,3,3,1,3,NULL,NULL,NULL,b1,BlockList1,7,58,2,7,e,NULL,NULL,NULL,NULL,NULL,NULL,NULL,NULL,NULL,TrialProc4,b1trails1,blue,w,1,e,433
Individual,3,1,"<?xml version=""1.0""?>\n<Clock xmlns:dt=""urn:schemas-microsoft-com:datatypes""><Description dt:dt=""string"">E-Prime Primary Realtime Clock</Description><StartTime><Timestamp dt:dt=""int"">0</Timestamp><DateUtc dt:dt=""string"">2017-10-10T16:39:40Z</DateUtc></StartTime><FrequencyChanges><FrequencyChange><Frequency dt:dt=""r8"">2923154</Frequency><Timestamp dt:dt=""r8"">314382068894</Timestamp><Current dt:dt=""r8"">0</Current><DateUtc dt:dt=""string"">2017-10-10T16:39:40Z</DateUtc></FrequencyChange></FrequencyChanges></Clock>\n",Individual-003-1,59.955,?,1.0.0.476,1,850042737,Professional,2.0.10.353,2.0.10.353,10/10/2017,10/10/2017 16:39,17:39:41,2.0.10.248,1,1,1,1,M1,List1,3,3,1,3,NULL,NULL,NULL,b1,BlockList1,8,82,2,8,e,NULL,NULL,NULL,NULL,NULL,NULL,NULL,NULL,NULL,TrialProc4,b1trails1,blue,w,1,e,374
Individual,3,1,"<?xml version=""1.0""?>\n<Clock xmlns:dt=""urn:schemas-microsoft-com:datatypes""><Description dt:dt=""string"">E-Prime Primary Realtime Clock</Description><StartTime><Timestamp dt:dt=""int"">0</Timestamp><DateUtc dt:dt=""string"">2017-10-10T16:39:40Z</DateUtc></StartTime><FrequencyChanges><FrequencyChange><Frequency dt:dt=""r8"">2923154</Frequency><Timestamp dt:dt=""r8"">314382068894</Timestamp><Current dt:dt=""r8"">0</Current><DateUtc dt:dt=""string"">2017-10-10T16:39:40Z</DateUtc></FrequencyChange></FrequencyChanges></Clock>\n",Individual-003-1,59.955,?,1.0.0.476,1,850042737,Professional,2.0.10.353,2.0.10.353,10/10/2017,10/10/2017 16:39,17:39:41,2.0.10.248,1,1,1,1,M1,List1,3,3,1,3,NULL,NULL,NULL,b1,BlockList1,9,45,2,9,e,NULL,NULL,NULL,NULL,NULL,NULL,NULL,NULL,NULL,TrialProc4,b1trails1,blue,e,1,e,548
Individual,3,1,"<?xml version=""1.0""?>\n<Clock xmlns:dt=""urn:schemas-microsoft-com:datatypes""><Description dt:dt=""string"">E-Prime Primary Realtime Clock</Description><StartTime><Timestamp dt:dt=""int"">0</Timestamp><DateUtc dt:dt=""string"">2017-10-10T16:39:40Z</DateUtc></StartTime><FrequencyChanges><FrequencyChange><Frequency dt:dt=""r8"">2923154</Frequency><Timestamp dt:dt=""r8"">314382068894</Timestamp><Current dt:dt=""r8"">0</Current><DateUtc dt:dt=""string"">2017-10-10T16:39:40Z</DateUtc></FrequencyChange></FrequencyChanges></Clock>\n",Individual-003-1,59.955,?,1.0.0.476,1,850042737,Professional,2.0.10.353,2.0.10.353,10/10/2017,10/10/2017 16:39,17:39:41,2.0.10.248,1,1,1,1,M1,List1,3,3,1,3,NULL,NULL,NULL,b1,BlockList1,10,55,2,10,w,NULL,NULL,NULL,NULL,NULL,NULL,NULL,NULL,NULL,TrialProc4,b1trails1,red,w,1,w,623
Individual,3,1,"<?xml version=""1.0""?>\n<Clock xmlns:dt=""urn:schemas-microsoft-com:datatypes""><Description dt:dt=""string"">E-Prime Primary Realtime Clock</Description><StartTime><Timestamp dt:dt=""int"">0</Timestamp><DateUtc dt:dt=""string"">2017-10-10T16:39:40Z</DateUtc></StartTime><FrequencyChanges><FrequencyChange><Frequency dt:dt=""r8"">2923154</Frequency><Timestamp dt:dt=""r8"">314382068894</Timestamp><Current dt:dt=""r8"">0</Current><DateUtc dt:dt=""string"">2017-10-10T16:39:40Z</DateUtc></FrequencyChange></FrequencyChanges></Clock>\n",Individual-003-1,59.955,?,1.0.0.476,1,850042737,Professional,2.0.10.353,2.0.10.353,10/10/2017,10/10/2017 16:39,17:39:41,2.0.10.248,1,1,1,1,M1,List1,3,3,1,3,NULL,NULL,NULL,b1,BlockList1,11,46,2,11,e,NULL,NULL,NULL,NULL,NULL,NULL,NULL,NULL,NULL,TrialProc4,b1trails1,blue,w,1,e,561
Individual,3,1,"<?xml version=""1.0""?>\n<Clock xmlns:dt=""urn:schemas-microsoft-com:datatypes""><Description dt:dt=""string"">E-Prime Primary Realtime Clock</Description><StartTime><Timestamp dt:dt=""int"">0</Timestamp><DateUtc dt:dt=""string"">2017-10-10T16:39:40Z</DateUtc></StartTime><FrequencyChanges><FrequencyChange><Frequency dt:dt=""r8"">2923154</Frequency><Timestamp dt:dt=""r8"">314382068894</Timestamp><Current dt:dt=""r8"">0</Current><DateUtc dt:dt=""string"">2017-10-10T16:39:40Z</DateUtc></FrequencyChange></FrequencyChanges></Clock>\n",Individual-003-1,59.955,?,1.0.0.476,1,850042737,Professional,2.0.10.353,2.0.10.353,10/10/2017,10/10/2017 16:39,17:39:41,2.0.10.248,1,1,1,1,M1,List1,3,3,1,3,NULL,NULL,NULL,b1,BlockList1,12,27,2,12,w,NULL,NULL,NULL,NULL,NULL,NULL,NULL,NULL,NULL,TrialProc4,b1trails1,red,w,1,w,433
Individual,3,1,"<?xml version=""1.0""?>\n<Clock xmlns:dt=""urn:schemas-microsoft-com:datatypes""><Description dt:dt=""string"">E-Prime Primary Realtime Clock</Description><StartTime><Timestamp dt:dt=""int"">0</Timestamp><DateUtc dt:dt=""string"">2017-10-10T16:39:40Z</DateUtc></StartTime><FrequencyChanges><FrequencyChange><Frequency dt:dt=""r8"">2923154</Frequency><Timestamp dt:dt=""r8"">314382068894</Timestamp><Current dt:dt=""r8"">0</Current><DateUtc dt:dt=""string"">2017-10-10T16:39:40Z</DateUtc></FrequencyChange></FrequencyChanges></Clock>\n",Individual-003-1,59.955,?,1.0.0.476,1,850042737,Professional,2.0.10.353,2.0.10.353,10/10/2017,10/10/2017 16:39,17:39:41,2.0.10.248,1,1,1,1,M1,List1,3,3,1,3,NULL,NULL,NULL,b1,BlockList1,13,33,2,13,e,NULL,NULL,NULL,NULL,NULL,NULL,NULL,NULL,NULL,TrialProc4,b1trails1,blue,e,1,e,685
Individual,3,1,"<?xml version=""1.0""?>\n<Clock xmlns:dt=""urn:schemas-microsoft-com:datatypes""><Description dt:dt=""string"">E-Prime Primary Realtime Clock</Description><StartTime><Timestamp dt:dt=""int"">0</Timestamp><DateUtc dt:dt=""string"">2017-10-10T16:39:40Z</DateUtc></StartTime><FrequencyChanges><FrequencyChange><Frequency dt:dt=""r8"">2923154</Frequency><Timestamp dt:dt=""r8"">314382068894</Timestamp><Current dt:dt=""r8"">0</Current><DateUtc dt:dt=""string"">2017-10-10T16:39:40Z</DateUtc></FrequencyChange></FrequencyChanges></Clock>\n",Individual-003-1,59.955,?,1.0.0.476,1,850042737,Professional,2.0.10.353,2.0.10.353,10/10/2017,10/10/2017 16:39,17:39:41,2.0.10.248,1,1,1,1,M1,List1,3,3,1,3,NULL,NULL,NULL,b1,BlockList1,14,34,2,14,e,NULL,NULL,NULL,NULL,NULL,NULL,NULL,NULL,NULL,TrialProc4,b1trails1,blue,w,1,e,532
Individual,3,1,"<?xml version=""1.0""?>\n<Clock xmlns:dt=""urn:schemas-microsoft-com:datatypes""><Description dt:dt=""string"">E-Prime Primary Realtime Clock</Description><StartTime><Timestamp dt:dt=""int"">0</Timestamp><DateUtc dt:dt=""string"">2017-10-10T16:39:40Z</DateUtc></StartTime><FrequencyChanges><FrequencyChange><Frequency dt:dt=""r8"">2923154</Frequency><Timestamp dt:dt=""r8"">314382068894</Timestamp><Current dt:dt=""r8"">0</Current><DateUtc dt:dt=""string"">2017-10-10T16:39:40Z</DateUtc></FrequencyChange></FrequencyChanges></Clock>\n",Individual-003-1,59.955,?,1.0.0.476,1,850042737,Professional,2.0.10.353,2.0.10.353,10/10/2017,10/10/2017 16:39,17:39:41,2.0.10.248,1,1,1,1,M1,List1,3,3,1,3,NULL,NULL,NULL,b1,BlockList1,15,1,2,15,e,NULL,NULL,NULL,NULL,NULL,NULL,NULL,NULL,NULL,TrialProc4,b1trails1,blue,e,1,e,411
Individual,3,1,"<?xml version=""1.0""?>\n<Clock xmlns:dt=""urn:schemas-microsoft-com:datatypes""><Description dt:dt=""string"">E-Prime Primary Realtime Clock</Description><StartTime><Timestamp dt:dt=""int"">0</Timestamp><DateUtc dt:dt=""string"">2017-10-10T16:39:40Z</DateUtc></StartTime><FrequencyChanges><FrequencyChange><Frequency dt:dt=""r8"">2923154</Frequency><Timestamp dt:dt=""r8"">314382068894</Timestamp><Current dt:dt=""r8"">0</Current><DateUtc dt:dt=""string"">2017-10-10T16:39:40Z</DateUtc></FrequencyChange></FrequencyChanges></Clock>\n",Individual-003-1,59.955,?,1.0.0.476,1,850042737,Professional,2.0.10.353,2.0.10.353,10/10/2017,10/10/2017 16:39,17:39:41,2.0.10.248,1,1,1,1,M1,List1,3,3,1,3,NULL,NULL,NULL,b1,BlockList1,16,76,2,16,w,NULL,NULL,NULL,NULL,NULL,NULL,NULL,NULL,NULL,TrialProc4,b1trails1,red,e,1,w,314
Individual,3,1,"<?xml version=""1.0""?>\n<Clock xmlns:dt=""urn:schemas-microsoft-com:datatypes""><Description dt:dt=""string"">E-Prime Primary Realtime Clock</Description><StartTime><Timestamp dt:dt=""int"">0</Timestamp><DateUtc dt:dt=""string"">2017-10-10T16:39:40Z</DateUtc></StartTime><FrequencyChanges><FrequencyChange><Frequency dt:dt=""r8"">2923154</Frequency><Timestamp dt:dt=""r8"">314382068894</Timestamp><Current dt:dt=""r8"">0</Current><DateUtc dt:dt=""string"">2017-10-10T16:39:40Z</DateUtc></FrequencyChange></FrequencyChanges></Clock>\n",Individual-003-1,59.955,?,1.0.0.476,1,850042737,Professional,2.0.10.353,2.0.10.353,10/10/2017,10/10/2017 16:39,17:39:41,2.0.10.248,1,1,1,1,M1,List1,3,3,1,3,NULL,NULL,NULL,b1,BlockList1,17,6,2,17,e,NULL,NULL,NULL,NULL,NULL,NULL,NULL,NULL,NULL,TrialProc4,b1trails1,blue,w,1,e,381
Individual,3,1,"<?xml version=""1.0""?>\n<Clock xmlns:dt=""urn:schemas-microsoft-com:datatypes""><Description dt:dt=""string"">E-Prime Primary Realtime Clock</Description><StartTime><Timestamp dt:dt=""int"">0</Timestamp><DateUtc dt:dt=""string"">2017-10-10T16:39:40Z</DateUtc></StartTime><FrequencyChanges><FrequencyChange><Frequency dt:dt=""r8"">2923154</Frequency><Timestamp dt:dt=""r8"">314382068894</Timestamp><Current dt:dt=""r8"">0</Current><DateUtc dt:dt=""string"">2017-10-10T16:39:40Z</DateUtc></FrequencyChange></FrequencyChanges></Clock>\n",Individual-003-1,59.955,?,1.0.0.476,1,850042737,Professional,2.0.10.353,2.0.10.353,10/10/2017,10/10/2017 16:39,17:39:41,2.0.10.248,1,1,1,1,M1,List1,3,3,1,3,NULL,NULL,NULL,b1,BlockList1,18,7,2,18,w,NULL,NULL,NULL,NULL,NULL,NULL,NULL,NULL,NULL,TrialProc4,b1trails1,red,w,1,w,380
Individual,3,1,"<?xml version=""1.0""?>\n<Clock xmlns:dt=""urn:schemas-microsoft-com:datatypes""><Description dt:dt=""string"">E-Prime Primary Realtime Clock</Description><StartTime><Timestamp dt:dt=""int"">0</Timestamp><DateUtc dt:dt=""string"">2017-10-10T16:39:40Z</DateUtc></StartTime><FrequencyChanges><FrequencyChange><Frequency dt:dt=""r8"">2923154</Frequency><Timestamp dt:dt=""r8"">314382068894</Timestamp><Current dt:dt=""r8"">0</Current><DateUtc dt:dt=""string"">2017-10-10T16:39:40Z</DateUtc></FrequencyChange></FrequencyChanges></Clock>\n",Individual-003-1,59.955,?,1.0.0.476,1,850042737,Professional,2.0.10.353,2.0.10.353,10/10/2017,10/10/2017 16:39,17:39:41,2.0.10.248,1,1,1,1,M1,List1,3,3,1,3,NULL,NULL,NULL,b1,BlockList1,19,4,2,19,w,NULL,NULL,NULL,NULL,NULL,NULL,NULL,NULL,NULL,TrialProc4,b1trails1,red,e,1,w,434
Individual,3,1,"<?xml version=""1.0""?>\n<Clock xmlns:dt=""urn:schemas-microsoft-com:datatypes""><Description dt:dt=""string"">E-Prime Primary Realtime Clock</Description><StartTime><Timestamp dt:dt=""int"">0</Timestamp><DateUtc dt:dt=""string"">2017-10-10T16:39:40Z</DateUtc></StartTime><FrequencyChanges><FrequencyChange><Frequency dt:dt=""r8"">2923154</Frequency><Timestamp dt:dt=""r8"">314382068894</Timestamp><Current dt:dt=""r8"">0</Current><DateUtc dt:dt=""string"">2017-10-10T16:39:40Z</DateUtc></FrequencyChange></FrequencyChanges></Clock>\n",Individual-003-1,59.955,?,1.0.0.476,1,850042737,Professional,2.0.10.353,2.0.10.353,10/10/2017,10/10/2017 16:39,17:39:41,2.0.10.248,1,1,1,1,M1,List1,3,3,1,3,NULL,NULL,NULL,b1,BlockList1,20,62,2,20,e,NULL,NULL,NULL,NULL,NULL,NULL,NULL,NULL,NULL,TrialProc4,b1trails1,blue,w,1,e,477
Individual,3,1,"<?xml version=""1.0""?>\n<Clock xmlns:dt=""urn:schemas-microsoft-com:datatypes""><Description dt:dt=""string"">E-Prime Primary Realtime Clock</Description><StartTime><Timestamp dt:dt=""int"">0</Timestamp><DateUtc dt:dt=""string"">2017-10-10T16:39:40Z</DateUtc></StartTime><FrequencyChanges><FrequencyChange><Frequency dt:dt=""r8"">2923154</Frequency><Timestamp dt:dt=""r8"">314382068894</Timestamp><Current dt:dt=""r8"">0</Current><DateUtc dt:dt=""string"">2017-10-10T16:39:40Z</DateUtc></FrequencyChange></FrequencyChanges></Clock>\n",Individual-003-1,59.955,?,1.0.0.476,1,850042737,Professional,2.0.10.353,2.0.10.353,10/10/2017,10/10/2017 16:39,17:39:41,2.0.10.248,1,1,1,1,M1,List1,3,3,1,3,NULL,NULL,NULL,b1,BlockList1,21,83,2,21,w,NULL,NULL,NULL,NULL,NULL,NULL,NULL,NULL,NULL,TrialProc4,b1trails1,red,w,1,w,348
Individual,3,1,"<?xml version=""1.0""?>\n<Clock xmlns:dt=""urn:schemas-microsoft-com:datatypes""><Description dt:dt=""string"">E-Prime Primary Realtime Clock</Description><StartTime><Timestamp dt:dt=""int"">0</Timestamp><DateUtc dt:dt=""string"">2017-10-10T16:39:40Z</DateUtc></StartTime><FrequencyChanges><FrequencyChange><Frequency dt:dt=""r8"">2923154</Frequency><Timestamp dt:dt=""r8"">314382068894</Timestamp><Current dt:dt=""r8"">0</Current><DateUtc dt:dt=""string"">2017-10-10T16:39:40Z</DateUtc></FrequencyChange></FrequencyChanges></Clock>\n",Individual-003-1,59.955,?,1.0.0.476,1,850042737,Professional,2.0.10.353,2.0.10.353,10/10/2017,10/10/2017 16:39,17:39:41,2.0.10.248,1,1,1,1,M1,List1,3,3,1,3,NULL,NULL,NULL,b1,BlockList1,22,93,2,22,e,NULL,NULL,NULL,NULL,NULL,NULL,NULL,NULL,NULL,TrialProc4,b1trails1,blue,e,1,e,567
Individual,3,1,"<?xml version=""1.0""?>\n<Clock xmlns:dt=""urn:schemas-microsoft-com:datatypes""><Description dt:dt=""string"">E-Prime Primary Realtime Clock</Description><StartTime><Timestamp dt:dt=""int"">0</Timestamp><DateUtc dt:dt=""string"">2017-10-10T16:39:40Z</DateUtc></StartTime><FrequencyChanges><FrequencyChange><Frequency dt:dt=""r8"">2923154</Frequency><Timestamp dt:dt=""r8"">314382068894</Timestamp><Current dt:dt=""r8"">0</Current><DateUtc dt:dt=""string"">2017-10-10T16:39:40Z</DateUtc></FrequencyChange></FrequencyChanges></Clock>\n",Individual-003-1,59.955,?,1.0.0.476,1,850042737,Professional,2.0.10.353,2.0.10.353,10/10/2017,10/10/2017 16:39,17:39:41,2.0.10.248,1,1,1,1,M1,List1,3,3,1,3,NULL,NULL,NULL,b1,BlockList1,23,16,2,23,w,NULL,NULL,NULL,NULL,NULL,NULL,NULL,NULL,NULL,TrialProc4,b1trails1,red,e,1,w,1722
Individual,3,1,"<?xml version=""1.0""?>\n<Clock xmlns:dt=""urn:schemas-microsoft-com:datatypes""><Description dt:dt=""string"">E-Prime Primary Realtime Clock</Description><StartTime><Timestamp dt:dt=""int"">0</Timestamp><DateUtc dt:dt=""string"">2017-10-10T16:39:40Z</DateUtc></StartTime><FrequencyChanges><FrequencyChange><Frequency dt:dt=""r8"">2923154</Frequency><Timestamp dt:dt=""r8"">314382068894</Timestamp><Current dt:dt=""r8"">0</Current><DateUtc dt:dt=""string"">2017-10-10T16:39:40Z</DateUtc></FrequencyChange></FrequencyChanges></Clock>\n",Individual-003-1,59.955,?,1.0.0.476,1,850042737,Professional,2.0.10.353,2.0.10.353,10/10/2017,10/10/2017 16:39,17:39:41,2.0.10.248,1,1,1,1,M1,List1,3,3,1,3,NULL,NULL,NULL,b1,BlockList1,24,78,2,24,e,NULL,NULL,NULL,NULL,NULL,NULL,NULL,NULL,NULL,TrialProc4,b1trails1,blue,w,1,e,625
Individual,3,1,"<?xml version=""1.0""?>\n<Clock xmlns:dt=""urn:schemas-microsoft-com:datatypes""><Description dt:dt=""string"">E-Prime Primary Realtime Clock</Description><StartTime><Timestamp dt:dt=""int"">0</Timestamp><DateUtc dt:dt=""string"">2017-10-10T16:39:40Z</DateUtc></StartTime><FrequencyChanges><FrequencyChange><Frequency dt:dt=""r8"">2923154</Frequency><Timestamp dt:dt=""r8"">314382068894</Timestamp><Current dt:dt=""r8"">0</Current><DateUtc dt:dt=""string"">2017-10-10T16:39:40Z</DateUtc></FrequencyChange></FrequencyChanges></Clock>\n",Individual-003-1,59.955,?,1.0.0.476,1,850042737,Professional,2.0.10.353,2.0.10.353,10/10/2017,10/10/2017 16:39,17:39:41,2.0.10.248,1,1,1,1,M1,List1,3,3,1,3,NULL,NULL,NULL,b1,BlockList1,25,53,2,25,e,NULL,NULL,NULL,NULL,NULL,NULL,NULL,NULL,NULL,TrialProc4,b1trails1,blue,e,1,e,575
Individual,3,1,"<?xml version=""1.0""?>\n<Clock xmlns:dt=""urn:schemas-microsoft-com:datatypes""><Description dt:dt=""string"">E-Prime Primary Realtime Clock</Description><StartTime><Timestamp dt:dt=""int"">0</Timestamp><DateUtc dt:dt=""string"">2017-10-10T16:39:40Z</DateUtc></StartTime><FrequencyChanges><FrequencyChange><Frequency dt:dt=""r8"">2923154</Frequency><Timestamp dt:dt=""r8"">314382068894</Timestamp><Current dt:dt=""r8"">0</Current><DateUtc dt:dt=""string"">2017-10-10T16:39:40Z</DateUtc></FrequencyChange></FrequencyChanges></Clock>\n",Individual-003-1,59.955,?,1.0.0.476,1,850042737,Professional,2.0.10.353,2.0.10.353,10/10/2017,10/10/2017 16:39,17:39:41,2.0.10.248,1,1,1,1,M1,List1,3,3,1,3,NULL,NULL,NULL,b1,BlockList1,26,23,2,26,w,NULL,NULL,NULL,NULL,NULL,NULL,NULL,NULL,NULL,TrialProc4,b1trails1,red,w,1,w,380
Individual,3,1,"<?xml version=""1.0""?>\n<Clock xmlns:dt=""urn:schemas-microsoft-com:datatypes""><Description dt:dt=""string"">E-Prime Primary Realtime Clock</Description><StartTime><Timestamp dt:dt=""int"">0</Timestamp><DateUtc dt:dt=""string"">2017-10-10T16:39:40Z</DateUtc></StartTime><FrequencyChanges><FrequencyChange><Frequency dt:dt=""r8"">2923154</Frequency><Timestamp dt:dt=""r8"">314382068894</Timestamp><Current dt:dt=""r8"">0</Current><DateUtc dt:dt=""string"">2017-10-10T16:39:40Z</DateUtc></FrequencyChange></FrequencyChanges></Clock>\n",Individual-003-1,59.955,?,1.0.0.476,1,850042737,Professional,2.0.10.353,2.0.10.353,10/10/2017,10/10/2017 16:39,17:39:41,2.0.10.248,1,1,1,1,M1,List1,3,3,1,3,NULL,NULL,NULL,b1,BlockList1,27,50,2,27,e,NULL,NULL,NULL,NULL,NULL,NULL,NULL,NULL,NULL,TrialProc4,b1trails1,blue,w,1,e,578
Individual,3,1,"<?xml version=""1.0""?>\n<Clock xmlns:dt=""urn:schemas-microsoft-com:datatypes""><Description dt:dt=""string"">E-Prime Primary Realtime Clock</Description><StartTime><Timestamp dt:dt=""int"">0</Timestamp><DateUtc dt:dt=""string"">2017-10-10T16:39:40Z</DateUtc></StartTime><FrequencyChanges><FrequencyChange><Frequency dt:dt=""r8"">2923154</Frequency><Timestamp dt:dt=""r8"">314382068894</Timestamp><Current dt:dt=""r8"">0</Current><DateUtc dt:dt=""string"">2017-10-10T16:39:40Z</DateUtc></FrequencyChange></FrequencyChanges></Clock>\n",Individual-003-1,59.955,?,1.0.0.476,1,850042737,Professional,2.0.10.353,2.0.10.353,10/10/2017,10/10/2017 16:39,17:39:41,2.0.10.248,1,1,1,1,M1,List1,3,3,1,3,NULL,NULL,NULL,b1,BlockList1,28,89,2,28,e,NULL,NULL,NULL,NULL,NULL,NULL,NULL,NULL,NULL,TrialProc4,b1trails1,blue,e,1,e,540
Individual,3,1,"<?xml version=""1.0""?>\n<Clock xmlns:dt=""urn:schemas-microsoft-com:datatypes""><Description dt:dt=""string"">E-Prime Primary Realtime Clock</Description><StartTime><Timestamp dt:dt=""int"">0</Timestamp><DateUtc dt:dt=""string"">2017-10-10T16:39:40Z</DateUtc></StartTime><FrequencyChanges><FrequencyChange><Frequency dt:dt=""r8"">2923154</Frequency><Timestamp dt:dt=""r8"">314382068894</Timestamp><Current dt:dt=""r8"">0</Current><DateUtc dt:dt=""string"">2017-10-10T16:39:40Z</DateUtc></FrequencyChange></FrequencyChanges></Clock>\n",Individual-003-1,59.955,?,1.0.0.476,1,850042737,Professional,2.0.10.353,2.0.10.353,10/10/2017,10/10/2017 16:39,17:39:41,2.0.10.248,1,1,1,1,M1,List1,3,3,1,3,NULL,NULL,NULL,b1,BlockList1,29,15,2,29,w,NULL,NULL,NULL,NULL,NULL,NULL,NULL,NULL,NULL,TrialProc4,b1trails1,red,w,1,w,395
Individual,3,1,"<?xml version=""1.0""?>\n<Clock xmlns:dt=""urn:schemas-microsoft-com:datatypes""><Description dt:dt=""string"">E-Prime Primary Realtime Clock</Description><StartTime><Timestamp dt:dt=""int"">0</Timestamp><DateUtc dt:dt=""string"">2017-10-10T16:39:40Z</DateUtc></StartTime><FrequencyChanges><FrequencyChange><Frequency dt:dt=""r8"">2923154</Frequency><Timestamp dt:dt=""r8"">314382068894</Timestamp><Current dt:dt=""r8"">0</Current><DateUtc dt:dt=""string"">2017-10-10T16:39:40Z</DateUtc></FrequencyChange></FrequencyChanges></Clock>\n",Individual-003-1,59.955,?,1.0.0.476,1,850042737,Professional,2.0.10.353,2.0.10.353,10/10/2017,10/10/2017 16:39,17:39:41,2.0.10.248,1,1,1,1,M1,List1,3,3,1,3,NULL,NULL,NULL,b1,BlockList1,30,66,2,30,e,NULL,NULL,NULL,NULL,NULL,NULL,NULL,NULL,NULL,TrialProc4,b1trails1,blue,w,1,e,733
Individual,3,1,"<?xml version=""1.0""?>\n<Clock xmlns:dt=""urn:schemas-microsoft-com:datatypes""><Description dt:dt=""string"">E-Prime Primary Realtime Clock</Description><StartTime><Timestamp dt:dt=""int"">0</Timestamp><DateUtc dt:dt=""string"">2017-10-10T16:39:40Z</DateUtc></StartTime><FrequencyChanges><FrequencyChange><Frequency dt:dt=""r8"">2923154</Frequency><Timestamp dt:dt=""r8"">314382068894</Timestamp><Current dt:dt=""r8"">0</Current><DateUtc dt:dt=""string"">2017-10-10T16:39:40Z</DateUtc></FrequencyChange></FrequencyChanges></Clock>\n",Individual-003-1,59.955,?,1.0.0.476,1,850042737,Professional,2.0.10.353,2.0.10.353,10/10/2017,10/10/2017 16:39,17:39:41,2.0.10.248,1,1,1,1,M1,List1,3,3,1,3,NULL,NULL,NULL,b1,BlockList1,31,60,2,31,w,NULL,NULL,NULL,NULL,NULL,NULL,NULL,NULL,NULL,TrialProc4,b1trails1,red,e,1,w,544
Individual,3,1,"<?xml version=""1.0""?>\n<Clock xmlns:dt=""urn:schemas-microsoft-com:datatypes""><Description dt:dt=""string"">E-Prime Primary Realtime Clock</Description><StartTime><Timestamp dt:dt=""int"">0</Timestamp><DateUtc dt:dt=""string"">2017-10-10T16:39:40Z</DateUtc></StartTime><FrequencyChanges><FrequencyChange><Frequency dt:dt=""r8"">2923154</Frequency><Timestamp dt:dt=""r8"">314382068894</Timestamp><Current dt:dt=""r8"">0</Current><DateUtc dt:dt=""string"">2017-10-10T16:39:40Z</DateUtc></FrequencyChange></FrequencyChanges></Clock>\n",Individual-003-1,59.955,?,1.0.0.476,1,850042737,Professional,2.0.10.353,2.0.10.353,10/10/2017,10/10/2017 16:39,17:39:41,2.0.10.248,1,1,1,1,M1,List1,3,3,1,3,NULL,NULL,NULL,b1,BlockList1,32,86,2,32,e,NULL,NULL,NULL,NULL,NULL,NULL,NULL,NULL,NULL,TrialProc4,b1trails1,blue,w,1,e,484
Individual,3,1,"<?xml version=""1.0""?>\n<Clock xmlns:dt=""urn:schemas-microsoft-com:datatypes""><Description dt:dt=""string"">E-Prime Primary Realtime Clock</Description><StartTime><Timestamp dt:dt=""int"">0</Timestamp><DateUtc dt:dt=""string"">2017-10-10T16:39:40Z</DateUtc></StartTime><FrequencyChanges><FrequencyChange><Frequency dt:dt=""r8"">2923154</Frequency><Timestamp dt:dt=""r8"">314382068894</Timestamp><Current dt:dt=""r8"">0</Current><DateUtc dt:dt=""string"">2017-10-10T16:39:40Z</DateUtc></FrequencyChange></FrequencyChanges></Clock>\n",Individual-003-1,59.955,?,1.0.0.476,1,850042737,Professional,2.0.10.353,2.0.10.353,10/10/2017,10/10/2017 16:39,17:39:41,2.0.10.248,1,1,1,1,M1,List1,3,3,1,3,NULL,NULL,NULL,b1,BlockList1,33,74,2,33,e,NULL,NULL,NULL,NULL,NULL,NULL,NULL,NULL,NULL,TrialProc4,b1trails1,blue,w,1,e,418
Individual,3,1,"<?xml version=""1.0""?>\n<Clock xmlns:dt=""urn:schemas-microsoft-com:datatypes""><Description dt:dt=""string"">E-Prime Primary Realtime Clock</Description><StartTime><Timestamp dt:dt=""int"">0</Timestamp><DateUtc dt:dt=""string"">2017-10-10T16:39:40Z</DateUtc></StartTime><FrequencyChanges><FrequencyChange><Frequency dt:dt=""r8"">2923154</Frequency><Timestamp dt:dt=""r8"">314382068894</Timestamp><Current dt:dt=""r8"">0</Current><DateUtc dt:dt=""string"">2017-10-10T16:39:40Z</DateUtc></FrequencyChange></FrequencyChanges></Clock>\n",Individual-003-1,59.955,?,1.0.0.476,1,850042737,Professional,2.0.10.353,2.0.10.353,10/10/2017,10/10/2017 16:39,17:39:41,2.0.10.248,1,1,1,1,M1,List1,3,3,1,3,NULL,NULL,NULL,b1,BlockList1,34,12,2,34,w,NULL,NULL,NULL,NULL,NULL,NULL,NULL,NULL,NULL,TrialProc4,b1trails1,red,e,1,w,580
Individual,3,1,"<?xml version=""1.0""?>\n<Clock xmlns:dt=""urn:schemas-microsoft-com:datatypes""><Description dt:dt=""string"">E-Prime Primary Realtime Clock</Description><StartTime><Timestamp dt:dt=""int"">0</Timestamp><DateUtc dt:dt=""string"">2017-10-10T16:39:40Z</DateUtc></StartTime><FrequencyChanges><FrequencyChange><Frequency dt:dt=""r8"">2923154</Frequency><Timestamp dt:dt=""r8"">314382068894</Timestamp><Current dt:dt=""r8"">0</Current><DateUtc dt:dt=""string"">2017-10-10T16:39:40Z</DateUtc></FrequencyChange></FrequencyChanges></Clock>\n",Individual-003-1,59.955,?,1.0.0.476,1,850042737,Professional,2.0.10.353,2.0.10.353,10/10/2017,10/10/2017 16:39,17:39:41,2.0.10.248,1,1,1,1,M1,List1,3,3,1,3,NULL,NULL,NULL,b1,BlockList1,35,61,2,35,e,NULL,NULL,NULL,NULL,NULL,NULL,NULL,NULL,NULL,TrialProc4,b1trails1,blue,e,1,e,661
Individual,3,1,"<?xml version=""1.0""?>\n<Clock xmlns:dt=""urn:schemas-microsoft-com:datatypes""><Description dt:dt=""string"">E-Prime Primary Realtime Clock</Description><StartTime><Timestamp dt:dt=""int"">0</Timestamp><DateUtc dt:dt=""string"">2017-10-10T16:39:40Z</DateUtc></StartTime><FrequencyChanges><FrequencyChange><Frequency dt:dt=""r8"">2923154</Frequency><Timestamp dt:dt=""r8"">314382068894</Timestamp><Current dt:dt=""r8"">0</Current><DateUtc dt:dt=""string"">2017-10-10T16:39:40Z</DateUtc></FrequencyChange></FrequencyChanges></Clock>\n",Individual-003-1,59.955,?,1.0.0.476,1,850042737,Professional,2.0.10.353,2.0.10.353,10/10/2017,10/10/2017 16:39,17:39:41,2.0.10.248,1,1,1,1,M1,List1,3,3,1,3,NULL,NULL,NULL,b1,BlockList1,36,79,2,36,w,NULL,NULL,NULL,NULL,NULL,NULL,NULL,NULL,NULL,TrialProc4,b1trails1,red,w,1,w,329
Individual,3,1,"<?xml version=""1.0""?>\n<Clock xmlns:dt=""urn:schemas-microsoft-com:datatypes""><Description dt:dt=""string"">E-Prime Primary Realtime Clock</Description><StartTime><Timestamp dt:dt=""int"">0</Timestamp><DateUtc dt:dt=""string"">2017-10-10T16:39:40Z</DateUtc></StartTime><FrequencyChanges><FrequencyChange><Frequency dt:dt=""r8"">2923154</Frequency><Timestamp dt:dt=""r8"">314382068894</Timestamp><Current dt:dt=""r8"">0</Current><DateUtc dt:dt=""string"">2017-10-10T16:39:40Z</DateUtc></FrequencyChange></FrequencyChanges></Clock>\n",Individual-003-1,59.955,?,1.0.0.476,1,850042737,Professional,2.0.10.353,2.0.10.353,10/10/2017,10/10/2017 16:39,17:39:41,2.0.10.248,1,1,1,1,M1,List1,3,3,1,3,NULL,NULL,NULL,b1,BlockList1,37,81,2,37,e,NULL,NULL,NULL,NULL,NULL,NULL,NULL,NULL,NULL,TrialProc4,b1trails1,blue,e,1,e,389
Individual,3,1,"<?xml version=""1.0""?>\n<Clock xmlns:dt=""urn:schemas-microsoft-com:datatypes""><Description dt:dt=""string"">E-Prime Primary Realtime Clock</Description><StartTime><Timestamp dt:dt=""int"">0</Timestamp><DateUtc dt:dt=""string"">2017-10-10T16:39:40Z</DateUtc></StartTime><FrequencyChanges><FrequencyChange><Frequency dt:dt=""r8"">2923154</Frequency><Timestamp dt:dt=""r8"">314382068894</Timestamp><Current dt:dt=""r8"">0</Current><DateUtc dt:dt=""string"">2017-10-10T16:39:40Z</DateUtc></FrequencyChange></FrequencyChanges></Clock>\n",Individual-003-1,59.955,?,1.0.0.476,1,850042737,Professional,2.0.10.353,2.0.10.353,10/10/2017,10/10/2017 16:39,17:39:41,2.0.10.248,1,1,1,1,M1,List1,3,3,1,3,NULL,NULL,NULL,b1,BlockList1,38,67,2,38,w,NULL,NULL,NULL,NULL,NULL,NULL,NULL,NULL,NULL,TrialProc4,b1trails1,red,w,1,w,421
Individual,3,1,"<?xml version=""1.0""?>\n<Clock xmlns:dt=""urn:schemas-microsoft-com:datatypes""><Description dt:dt=""string"">E-Prime Primary Realtime Clock</Description><StartTime><Timestamp dt:dt=""int"">0</Timestamp><DateUtc dt:dt=""string"">2017-10-10T16:39:40Z</DateUtc></StartTime><FrequencyChanges><FrequencyChange><Frequency dt:dt=""r8"">2923154</Frequency><Timestamp dt:dt=""r8"">314382068894</Timestamp><Current dt:dt=""r8"">0</Current><DateUtc dt:dt=""string"">2017-10-10T16:39:40Z</DateUtc></FrequencyChange></FrequencyChanges></Clock>\n",Individual-003-1,59.955,?,1.0.0.476,1,850042737,Professional,2.0.10.353,2.0.10.353,10/10/2017,10/10/2017 16:39,17:39:41,2.0.10.248,1,1,1,1,M1,List1,3,3,1,3,NULL,NULL,NULL,b1,BlockList1,39,24,2,39,w,NULL,NULL,NULL,NULL,NULL,NULL,NULL,NULL,NULL,TrialProc4,b1trails1,red,e,1,w,714
Individual,3,1,"<?xml version=""1.0""?>\n<Clock xmlns:dt=""urn:schemas-microsoft-com:datatypes""><Description dt:dt=""string"">E-Prime Primary Realtime Clock</Description><StartTime><Timestamp dt:dt=""int"">0</Timestamp><DateUtc dt:dt=""string"">2017-10-10T16:39:40Z</DateUtc></StartTime><FrequencyChanges><FrequencyChange><Frequency dt:dt=""r8"">2923154</Frequency><Timestamp dt:dt=""r8"">314382068894</Timestamp><Current dt:dt=""r8"">0</Current><DateUtc dt:dt=""string"">2017-10-10T16:39:40Z</DateUtc></FrequencyChange></FrequencyChanges></Clock>\n",Individual-003-1,59.955,?,1.0.0.476,1,850042737,Professional,2.0.10.353,2.0.10.353,10/10/2017,10/10/2017 16:39,17:39:41,2.0.10.248,1,1,1,1,M1,List1,3,3,1,3,NULL,NULL,NULL,b1,BlockList1,40,2,2,40,e,NULL,NULL,NULL,NULL,NULL,NULL,NULL,NULL,NULL,TrialProc4,b1trails1,blue,w,1,e,643
Individual,3,1,"<?xml version=""1.0""?>\n<Clock xmlns:dt=""urn:schemas-microsoft-com:datatypes""><Description dt:dt=""string"">E-Prime Primary Realtime Clock</Description><StartTime><Timestamp dt:dt=""int"">0</Timestamp><DateUtc dt:dt=""string"">2017-10-10T16:39:40Z</DateUtc></StartTime><FrequencyChanges><FrequencyChange><Frequency dt:dt=""r8"">2923154</Frequency><Timestamp dt:dt=""r8"">314382068894</Timestamp><Current dt:dt=""r8"">0</Current><DateUtc dt:dt=""string"">2017-10-10T16:39:40Z</DateUtc></FrequencyChange></FrequencyChanges></Clock>\n",Individual-003-1,59.955,?,1.0.0.476,1,850042737,Professional,2.0.10.353,2.0.10.353,10/10/2017,10/10/2017 16:39,17:39:41,2.0.10.248,1,1,1,1,M1,List1,3,3,1,3,NULL,NULL,NULL,b1,BlockList1,41,14,2,41,e,NULL,NULL,NULL,NULL,NULL,NULL,NULL,NULL,NULL,TrialProc4,b1trails1,blue,w,1,e,667
Individual,3,1,"<?xml version=""1.0""?>\n<Clock xmlns:dt=""urn:schemas-microsoft-com:datatypes""><Description dt:dt=""string"">E-Prime Primary Realtime Clock</Description><StartTime><Timestamp dt:dt=""int"">0</Timestamp><DateUtc dt:dt=""string"">2017-10-10T16:39:40Z</DateUtc></StartTime><FrequencyChanges><FrequencyChange><Frequency dt:dt=""r8"">2923154</Frequency><Timestamp dt:dt=""r8"">314382068894</Timestamp><Current dt:dt=""r8"">0</Current><DateUtc dt:dt=""string"">2017-10-10T16:39:40Z</DateUtc></FrequencyChange></FrequencyChanges></Clock>\n",Individual-003-1,59.955,?,1.0.0.476,1,850042737,Professional,2.0.10.353,2.0.10.353,10/10/2017,10/10/2017 16:39,17:39:41,2.0.10.248,1,1,1,1,M1,List1,3,3,1,3,NULL,NULL,NULL,b1,BlockList1,42,52,2,42,w,NULL,NULL,NULL,NULL,NULL,NULL,NULL,NULL,NULL,TrialProc4,b1trails1,red,e,1,w,435
Individual,3,1,"<?xml version=""1.0""?>\n<Clock xmlns:dt=""urn:schemas-microsoft-com:datatypes""><Description dt:dt=""string"">E-Prime Primary Realtime Clock</Description><StartTime><Timestamp dt:dt=""int"">0</Timestamp><DateUtc dt:dt=""string"">2017-10-10T16:39:40Z</DateUtc></StartTime><FrequencyChanges><FrequencyChange><Frequency dt:dt=""r8"">2923154</Frequency><Timestamp dt:dt=""r8"">314382068894</Timestamp><Current dt:dt=""r8"">0</Current><DateUtc dt:dt=""string"">2017-10-10T16:39:40Z</DateUtc></FrequencyChange></FrequencyChanges></Clock>\n",Individual-003-1,59.955,?,1.0.0.476,1,850042737,Professional,2.0.10.353,2.0.10.353,10/10/2017,10/10/2017 16:39,17:39:41,2.0.10.248,1,1,1,1,M1,List1,3,3,1,3,NULL,NULL,NULL,b1,BlockList1,43,72,2,43,w,NULL,NULL,NULL,NULL,NULL,NULL,NULL,NULL,NULL,TrialProc4,b1trails1,red,e,1,w,546
Individual,3,1,"<?xml version=""1.0""?>\n<Clock xmlns:dt=""urn:schemas-microsoft-com:datatypes""><Description dt:dt=""string"">E-Prime Primary Realtime Clock</Description><StartTime><Timestamp dt:dt=""int"">0</Timestamp><DateUtc dt:dt=""string"">2017-10-10T16:39:40Z</DateUtc></StartTime><FrequencyChanges><FrequencyChange><Frequency dt:dt=""r8"">2923154</Frequency><Timestamp dt:dt=""r8"">314382068894</Timestamp><Current dt:dt=""r8"">0</Current><DateUtc dt:dt=""string"">2017-10-10T16:39:40Z</DateUtc></FrequencyChange></FrequencyChanges></Clock>\n",Individual-003-1,59.955,?,1.0.0.476,1,850042737,Professional,2.0.10.353,2.0.10.353,10/10/2017,10/10/2017 16:39,17:39:41,2.0.10.248,1,1,1,1,M1,List1,3,3,1,3,NULL,NULL,NULL,b1,BlockList1,44,75,2,44,w,NULL,NULL,NULL,NULL,NULL,NULL,NULL,NULL,NULL,TrialProc4,b1trails1,red,w,1,w,373
Individual,3,1,"<?xml version=""1.0""?>\n<Clock xmlns:dt=""urn:schemas-microsoft-com:datatypes""><Description dt:dt=""string"">E-Prime Primary Realtime Clock</Description><StartTime><Timestamp dt:dt=""int"">0</Timestamp><DateUtc dt:dt=""string"">2017-10-10T16:39:40Z</DateUtc></StartTime><FrequencyChanges><FrequencyChange><Frequency dt:dt=""r8"">2923154</Frequency><Timestamp dt:dt=""r8"">314382068894</Timestamp><Current dt:dt=""r8"">0</Current><DateUtc dt:dt=""string"">2017-10-10T16:39:40Z</DateUtc></FrequencyChange></FrequencyChanges></Clock>\n",Individual-003-1,59.955,?,1.0.0.476,1,850042737,Professional,2.0.10.353,2.0.10.353,10/10/2017,10/10/2017 16:39,17:39:41,2.0.10.248,1,1,1,1,M1,List1,3,3,1,3,NULL,NULL,NULL,b1,BlockList1,45,49,2,45,e,NULL,NULL,NULL,NULL,NULL,NULL,NULL,NULL,NULL,TrialProc4,b1trails1,blue,e,1,e,318
Individual,3,1,"<?xml version=""1.0""?>\n<Clock xmlns:dt=""urn:schemas-microsoft-com:datatypes""><Description dt:dt=""string"">E-Prime Primary Realtime Clock</Description><StartTime><Timestamp dt:dt=""int"">0</Timestamp><DateUtc dt:dt=""string"">2017-10-10T16:39:40Z</DateUtc></StartTime><FrequencyChanges><FrequencyChange><Frequency dt:dt=""r8"">2923154</Frequency><Timestamp dt:dt=""r8"">314382068894</Timestamp><Current dt:dt=""r8"">0</Current><DateUtc dt:dt=""string"">2017-10-10T16:39:40Z</DateUtc></FrequencyChange></FrequencyChanges></Clock>\n",Individual-003-1,59.955,?,1.0.0.476,1,850042737,Professional,2.0.10.353,2.0.10.353,10/10/2017,10/10/2017 16:39,17:39:41,2.0.10.248,1,1,1,1,M1,List1,3,3,1,3,NULL,NULL,NULL,b1,BlockList1,46,40,2,46,w,NULL,NULL,NULL,NULL,NULL,NULL,NULL,NULL,NULL,TrialProc4,b1trails1,red,e,1,w,398
Individual,3,1,"<?xml version=""1.0""?>\n<Clock xmlns:dt=""urn:schemas-microsoft-com:datatypes""><Description dt:dt=""string"">E-Prime Primary Realtime Clock</Description><StartTime><Timestamp dt:dt=""int"">0</Timestamp><DateUtc dt:dt=""string"">2017-10-10T16:39:40Z</DateUtc></StartTime><FrequencyChanges><FrequencyChange><Frequency dt:dt=""r8"">2923154</Frequency><Timestamp dt:dt=""r8"">314382068894</Timestamp><Current dt:dt=""r8"">0</Current><DateUtc dt:dt=""string"">2017-10-10T16:39:40Z</DateUtc></FrequencyChange></FrequencyChanges></Clock>\n",Individual-003-1,59.955,?,1.0.0.476,1,850042737,Professional,2.0.10.353,2.0.10.353,10/10/2017,10/10/2017 16:39,17:39:41,2.0.10.248,1,1,1,1,M1,List1,3,3,1,3,NULL,NULL,NULL,b1,BlockList1,47,91,2,47,w,NULL,NULL,NULL,NULL,NULL,NULL,NULL,NULL,NULL,TrialProc4,b1trails1,red,w,1,w,321
Individual,3,1,"<?xml version=""1.0""?>\n<Clock xmlns:dt=""urn:schemas-microsoft-com:datatypes""><Description dt:dt=""string"">E-Prime Primary Realtime Clock</Description><StartTime><Timestamp dt:dt=""int"">0</Timestamp><DateUtc dt:dt=""string"">2017-10-10T16:39:40Z</DateUtc></StartTime><FrequencyChanges><FrequencyChange><Frequency dt:dt=""r8"">2923154</Frequency><Timestamp dt:dt=""r8"">314382068894</Timestamp><Current dt:dt=""r8"">0</Current><DateUtc dt:dt=""string"">2017-10-10T16:39:40Z</DateUtc></FrequencyChange></FrequencyChanges></Clock>\n",Individual-003-1,59.955,?,1.0.0.476,1,850042737,Professional,2.0.10.353,2.0.10.353,10/10/2017,10/10/2017 16:39,17:39:41,2.0.10.248,1,1,1,1,M1,List1,3,3,1,3,NULL,NULL,NULL,b1,BlockList1,48,26,2,48,e,NULL,NULL,NULL,NULL,NULL,NULL,NULL,NULL,NULL,TrialProc4,b1trails1,blue,w,1,e,401
Individual,3,1,"<?xml version=""1.0""?>\n<Clock xmlns:dt=""urn:schemas-microsoft-com:datatypes""><Description dt:dt=""string"">E-Prime Primary Realtime Clock</Description><StartTime><Timestamp dt:dt=""int"">0</Timestamp><DateUtc dt:dt=""string"">2017-10-10T16:39:40Z</DateUtc></StartTime><FrequencyChanges><FrequencyChange><Frequency dt:dt=""r8"">2923154</Frequency><Timestamp dt:dt=""r8"">314382068894</Timestamp><Current dt:dt=""r8"">0</Current><DateUtc dt:dt=""string"">2017-10-10T16:39:40Z</DateUtc></FrequencyChange></FrequencyChanges></Clock>\n",Individual-003-1,59.955,?,1.0.0.476,1,850042737,Professional,2.0.10.353,2.0.10.353,10/10/2017,10/10/2017 16:39,17:39:41,2.0.10.248,1,1,1,1,M1,List1,3,3,1,3,NULL,NULL,NULL,b1,BlockList1,49,68,2,49,w,NULL,NULL,NULL,NULL,NULL,NULL,NULL,NULL,NULL,TrialProc4,b1trails1,red,e,1,w,334
Individual,3,1,"<?xml version=""1.0""?>\n<Clock xmlns:dt=""urn:schemas-microsoft-com:datatypes""><Description dt:dt=""string"">E-Prime Primary Realtime Clock</Description><StartTime><Timestamp dt:dt=""int"">0</Timestamp><DateUtc dt:dt=""string"">2017-10-10T16:39:40Z</DateUtc></StartTime><FrequencyChanges><FrequencyChange><Frequency dt:dt=""r8"">2923154</Frequency><Timestamp dt:dt=""r8"">314382068894</Timestamp><Current dt:dt=""r8"">0</Current><DateUtc dt:dt=""string"">2017-10-10T16:39:40Z</DateUtc></FrequencyChange></FrequencyChanges></Clock>\n",Individual-003-1,59.955,?,1.0.0.476,1,850042737,Professional,2.0.10.353,2.0.10.353,10/10/2017,10/10/2017 16:39,17:39:41,2.0.10.248,1,1,1,1,M1,List1,3,3,1,3,NULL,NULL,NULL,b1,BlockList1,50,94,2,50,e,NULL,NULL,NULL,NULL,NULL,NULL,NULL,NULL,NULL,TrialProc4,b1trails1,blue,w,1,e,416
Individual,3,1,"<?xml version=""1.0""?>\n<Clock xmlns:dt=""urn:schemas-microsoft-com:datatypes""><Description dt:dt=""string"">E-Prime Primary Realtime Clock</Description><StartTime><Timestamp dt:dt=""int"">0</Timestamp><DateUtc dt:dt=""string"">2017-10-10T16:39:40Z</DateUtc></StartTime><FrequencyChanges><FrequencyChange><Frequency dt:dt=""r8"">2923154</Frequency><Timestamp dt:dt=""r8"">314382068894</Timestamp><Current dt:dt=""r8"">0</Current><DateUtc dt:dt=""string"">2017-10-10T16:39:40Z</DateUtc></FrequencyChange></FrequencyChanges></Clock>\n",Individual-003-1,59.955,?,1.0.0.476,1,850042737,Professional,2.0.10.353,2.0.10.353,10/10/2017,10/10/2017 16:39,17:39:41,2.0.10.248,1,1,1,1,M1,List1,3,3,1,3,NULL,NULL,NULL,b1,BlockList1,51,96,2,51,w,NULL,NULL,NULL,NULL,NULL,NULL,NULL,NULL,NULL,TrialProc4,b1trails1,red,e,1,w,736
Individual,3,1,"<?xml version=""1.0""?>\n<Clock xmlns:dt=""urn:schemas-microsoft-com:datatypes""><Description dt:dt=""string"">E-Prime Primary Realtime Clock</Description><StartTime><Timestamp dt:dt=""int"">0</Timestamp><DateUtc dt:dt=""string"">2017-10-10T16:39:40Z</DateUtc></StartTime><FrequencyChanges><FrequencyChange><Frequency dt:dt=""r8"">2923154</Frequency><Timestamp dt:dt=""r8"">314382068894</Timestamp><Current dt:dt=""r8"">0</Current><DateUtc dt:dt=""string"">2017-10-10T16:39:40Z</DateUtc></FrequencyChange></FrequencyChanges></Clock>\n",Individual-003-1,59.955,?,1.0.0.476,1,850042737,Professional,2.0.10.353,2.0.10.353,10/10/2017,10/10/2017 16:39,17:39:41,2.0.10.248,1,1,1,1,M1,List1,3,3,1,3,NULL,NULL,NULL,b1,BlockList1,52,36,2,52,w,NULL,NULL,NULL,NULL,NULL,NULL,NULL,NULL,NULL,TrialProc4,b1trails1,red,e,1,w,366
Individual,3,1,"<?xml version=""1.0""?>\n<Clock xmlns:dt=""urn:schemas-microsoft-com:datatypes""><Description dt:dt=""string"">E-Prime Primary Realtime Clock</Description><StartTime><Timestamp dt:dt=""int"">0</Timestamp><DateUtc dt:dt=""string"">2017-10-10T16:39:40Z</DateUtc></StartTime><FrequencyChanges><FrequencyChange><Frequency dt:dt=""r8"">2923154</Frequency><Timestamp dt:dt=""r8"">314382068894</Timestamp><Current dt:dt=""r8"">0</Current><DateUtc dt:dt=""string"">2017-10-10T16:39:40Z</DateUtc></FrequencyChange></FrequencyChanges></Clock>\n",Individual-003-1,59.955,?,1.0.0.476,1,850042737,Professional,2.0.10.353,2.0.10.353,10/10/2017,10/10/2017 16:39,17:39:41,2.0.10.248,1,1,1,1,M1,List1,3,3,1,3,NULL,NULL,NULL,b1,BlockList1,53,88,2,53,w,NULL,NULL,NULL,NULL,NULL,NULL,NULL,NULL,NULL,TrialProc4,b1trails1,red,e,1,w,363
Individual,3,1,"<?xml version=""1.0""?>\n<Clock xmlns:dt=""urn:schemas-microsoft-com:datatypes""><Description dt:dt=""string"">E-Prime Primary Realtime Clock</Description><StartTime><Timestamp dt:dt=""int"">0</Timestamp><DateUtc dt:dt=""string"">2017-10-10T16:39:40Z</DateUtc></StartTime><FrequencyChanges><FrequencyChange><Frequency dt:dt=""r8"">2923154</Frequency><Timestamp dt:dt=""r8"">314382068894</Timestamp><Current dt:dt=""r8"">0</Current><DateUtc dt:dt=""string"">2017-10-10T16:39:40Z</DateUtc></FrequencyChange></FrequencyChanges></Clock>\n",Individual-003-1,59.955,?,1.0.0.476,1,850042737,Professional,2.0.10.353,2.0.10.353,10/10/2017,10/10/2017 16:39,17:39:41,2.0.10.248,1,1,1,1,M1,List1,3,3,1,3,NULL,NULL,NULL,b1,BlockList1,54,21,2,54,e,NULL,NULL,NULL,NULL,NULL,NULL,NULL,NULL,NULL,TrialProc4,b1trails1,blue,e,1,e,434
Individual,3,1,"<?xml version=""1.0""?>\n<Clock xmlns:dt=""urn:schemas-microsoft-com:datatypes""><Description dt:dt=""string"">E-Prime Primary Realtime Clock</Description><StartTime><Timestamp dt:dt=""int"">0</Timestamp><DateUtc dt:dt=""string"">2017-10-10T16:39:40Z</DateUtc></StartTime><FrequencyChanges><FrequencyChange><Frequency dt:dt=""r8"">2923154</Frequency><Timestamp dt:dt=""r8"">314382068894</Timestamp><Current dt:dt=""r8"">0</Current><DateUtc dt:dt=""string"">2017-10-10T16:39:40Z</DateUtc></FrequencyChange></FrequencyChanges></Clock>\n",Individual-003-1,59.955,?,1.0.0.476,1,850042737,Professional,2.0.10.353,2.0.10.353,10/10/2017,10/10/2017 16:39,17:39:41,2.0.10.248,1,1,1,1,M1,List1,3,3,1,3,NULL,NULL,NULL,b1,BlockList1,55,39,2,55,w,NULL,NULL,NULL,NULL,NULL,NULL,NULL,NULL,NULL,TrialProc4,b1trails1,red,w,1,w,390
Individual,3,1,"<?xml version=""1.0""?>\n<Clock xmlns:dt=""urn:schemas-microsoft-com:datatypes""><Description dt:dt=""string"">E-Prime Primary Realtime Clock</Description><StartTime><Timestamp dt:dt=""int"">0</Timestamp><DateUtc dt:dt=""string"">2017-10-10T16:39:40Z</DateUtc></StartTime><FrequencyChanges><FrequencyChange><Frequency dt:dt=""r8"">2923154</Frequency><Timestamp dt:dt=""r8"">314382068894</Timestamp><Current dt:dt=""r8"">0</Current><DateUtc dt:dt=""string"">2017-10-10T16:39:40Z</DateUtc></FrequencyChange></FrequencyChanges></Clock>\n",Individual-003-1,59.955,?,1.0.0.476,1,850042737,Professional,2.0.10.353,2.0.10.353,10/10/2017,10/10/2017 16:39,17:39:41,2.0.10.248,1,1,1,1,M1,List1,3,3,1,3,NULL,NULL,NULL,b1,BlockList1,56,51,2,56,w,NULL,NULL,NULL,NULL,NULL,NULL,NULL,NULL,NULL,TrialProc4,b1trails1,red,w,1,w,516
Individual,3,1,"<?xml version=""1.0""?>\n<Clock xmlns:dt=""urn:schemas-microsoft-com:datatypes""><Description dt:dt=""string"">E-Prime Primary Realtime Clock</Description><StartTime><Timestamp dt:dt=""int"">0</Timestamp><DateUtc dt:dt=""string"">2017-10-10T16:39:40Z</DateUtc></StartTime><FrequencyChanges><FrequencyChange><Frequency dt:dt=""r8"">2923154</Frequency><Timestamp dt:dt=""r8"">314382068894</Timestamp><Current dt:dt=""r8"">0</Current><DateUtc dt:dt=""string"">2017-10-10T16:39:40Z</DateUtc></FrequencyChange></FrequencyChanges></Clock>\n",Individual-003-1,59.955,?,1.0.0.476,1,850042737,Professional,2.0.10.353,2.0.10.353,10/10/2017,10/10/2017 16:39,17:39:41,2.0.10.248,1,1,1,1,M1,List1,3,3,1,3,NULL,NULL,NULL,b1,BlockList1,57,73,2,57,e,NULL,NULL,NULL,NULL,NULL,NULL,NULL,NULL,NULL,TrialProc4,b1trails1,blue,e,1,e,336
Individual,3,1,"<?xml version=""1.0""?>\n<Clock xmlns:dt=""urn:schemas-microsoft-com:datatypes""><Description dt:dt=""string"">E-Prime Primary Realtime Clock</Description><StartTime><Timestamp dt:dt=""int"">0</Timestamp><DateUtc dt:dt=""string"">2017-10-10T16:39:40Z</DateUtc></StartTime><FrequencyChanges><FrequencyChange><Frequency dt:dt=""r8"">2923154</Frequency><Timestamp dt:dt=""r8"">314382068894</Timestamp><Current dt:dt=""r8"">0</Current><DateUtc dt:dt=""string"">2017-10-10T16:39:40Z</DateUtc></FrequencyChange></FrequencyChanges></Clock>\n",Individual-003-1,59.955,?,1.0.0.476,1,850042737,Professional,2.0.10.353,2.0.10.353,10/10/2017,10/10/2017 16:39,17:39:41,2.0.10.248,1,1,1,1,M1,List1,3,3,1,3,NULL,NULL,NULL,b1,BlockList1,58,38,2,58,e,NULL,NULL,NULL,NULL,NULL,NULL,NULL,NULL,NULL,TrialProc4,b1trails1,blue,w,1,e,479
Individual,3,1,"<?xml version=""1.0""?>\n<Clock xmlns:dt=""urn:schemas-microsoft-com:datatypes""><Description dt:dt=""string"">E-Prime Primary Realtime Clock</Description><StartTime><Timestamp dt:dt=""int"">0</Timestamp><DateUtc dt:dt=""string"">2017-10-10T16:39:40Z</DateUtc></StartTime><FrequencyChanges><FrequencyChange><Frequency dt:dt=""r8"">2923154</Frequency><Timestamp dt:dt=""r8"">314382068894</Timestamp><Current dt:dt=""r8"">0</Current><DateUtc dt:dt=""string"">2017-10-10T16:39:40Z</DateUtc></FrequencyChange></FrequencyChanges></Clock>\n",Individual-003-1,59.955,?,1.0.0.476,1,850042737,Professional,2.0.10.353,2.0.10.353,10/10/2017,10/10/2017 16:39,17:39:41,2.0.10.248,1,1,1,1,M1,List1,3,3,1,3,NULL,NULL,NULL,b1,BlockList1,59,59,2,59,w,NULL,NULL,NULL,NULL,NULL,NULL,NULL,NULL,NULL,TrialProc4,b1trails1,red,w,1,w,363
Individual,3,1,"<?xml version=""1.0""?>\n<Clock xmlns:dt=""urn:schemas-microsoft-com:datatypes""><Description dt:dt=""string"">E-Prime Primary Realtime Clock</Description><StartTime><Timestamp dt:dt=""int"">0</Timestamp><DateUtc dt:dt=""string"">2017-10-10T16:39:40Z</DateUtc></StartTime><FrequencyChanges><FrequencyChange><Frequency dt:dt=""r8"">2923154</Frequency><Timestamp dt:dt=""r8"">314382068894</Timestamp><Current dt:dt=""r8"">0</Current><DateUtc dt:dt=""string"">2017-10-10T16:39:40Z</DateUtc></FrequencyChange></FrequencyChanges></Clock>\n",Individual-003-1,59.955,?,1.0.0.476,1,850042737,Professional,2.0.10.353,2.0.10.353,10/10/2017,10/10/2017 16:39,17:39:41,2.0.10.248,1,1,1,1,M1,List1,3,3,1,3,NULL,NULL,NULL,b1,BlockList1,60,22,2,60,e,NULL,NULL,NULL,NULL,NULL,NULL,NULL,NULL,NULL,TrialProc4,b1trails1,blue,w,1,e,409
Individual,3,1,"<?xml version=""1.0""?>\n<Clock xmlns:dt=""urn:schemas-microsoft-com:datatypes""><Description dt:dt=""string"">E-Prime Primary Realtime Clock</Description><StartTime><Timestamp dt:dt=""int"">0</Timestamp><DateUtc dt:dt=""string"">2017-10-10T16:39:40Z</DateUtc></StartTime><FrequencyChanges><FrequencyChange><Frequency dt:dt=""r8"">2923154</Frequency><Timestamp dt:dt=""r8"">314382068894</Timestamp><Current dt:dt=""r8"">0</Current><DateUtc dt:dt=""string"">2017-10-10T16:39:40Z</DateUtc></FrequencyChange></FrequencyChanges></Clock>\n",Individual-003-1,59.955,?,1.0.0.476,1,850042737,Professional,2.0.10.353,2.0.10.353,10/10/2017,10/10/2017 16:39,17:39:41,2.0.10.248,1,1,1,1,M1,List1,3,3,1,3,NULL,NULL,NULL,b1,BlockList1,61,10,2,61,e,NULL,NULL,NULL,NULL,NULL,NULL,NULL,NULL,NULL,TrialProc4,b1trails1,blue,w,1,e,407
Individual,3,1,"<?xml version=""1.0""?>\n<Clock xmlns:dt=""urn:schemas-microsoft-com:datatypes""><Description dt:dt=""string"">E-Prime Primary Realtime Clock</Description><StartTime><Timestamp dt:dt=""int"">0</Timestamp><DateUtc dt:dt=""string"">2017-10-10T16:39:40Z</DateUtc></StartTime><FrequencyChanges><FrequencyChange><Frequency dt:dt=""r8"">2923154</Frequency><Timestamp dt:dt=""r8"">314382068894</Timestamp><Current dt:dt=""r8"">0</Current><DateUtc dt:dt=""string"">2017-10-10T16:39:40Z</DateUtc></FrequencyChange></FrequencyChanges></Clock>\n",Individual-003-1,59.955,?,1.0.0.476,1,850042737,Professional,2.0.10.353,2.0.10.353,10/10/2017,10/10/2017 16:39,17:39:41,2.0.10.248,1,1,1,1,M1,List1,3,3,1,3,NULL,NULL,NULL,b1,BlockList1,62,65,2,62,e,NULL,NULL,NULL,NULL,NULL,NULL,NULL,NULL,NULL,TrialProc4,b1trails1,blue,e,1,e,394
Individual,3,1,"<?xml version=""1.0""?>\n<Clock xmlns:dt=""urn:schemas-microsoft-com:datatypes""><Description dt:dt=""string"">E-Prime Primary Realtime Clock</Description><StartTime><Timestamp dt:dt=""int"">0</Timestamp><DateUtc dt:dt=""string"">2017-10-10T16:39:40Z</DateUtc></StartTime><FrequencyChanges><FrequencyChange><Frequency dt:dt=""r8"">2923154</Frequency><Timestamp dt:dt=""r8"">314382068894</Timestamp><Current dt:dt=""r8"">0</Current><DateUtc dt:dt=""string"">2017-10-10T16:39:40Z</DateUtc></FrequencyChange></FrequencyChanges></Clock>\n",Individual-003-1,59.955,?,1.0.0.476,1,850042737,Professional,2.0.10.353,2.0.10.353,10/10/2017,10/10/2017 16:39,17:39:41,2.0.10.248,1,1,1,1,M1,List1,3,3,1,3,NULL,NULL,NULL,b1,BlockList1,63,25,2,63,e,NULL,NULL,NULL,NULL,NULL,NULL,NULL,NULL,NULL,TrialProc4,b1trails1,blue,e,1,e,339
Individual,3,1,"<?xml version=""1.0""?>\n<Clock xmlns:dt=""urn:schemas-microsoft-com:datatypes""><Description dt:dt=""string"">E-Prime Primary Realtime Clock</Description><StartTime><Timestamp dt:dt=""int"">0</Timestamp><DateUtc dt:dt=""string"">2017-10-10T16:39:40Z</DateUtc></StartTime><FrequencyChanges><FrequencyChange><Frequency dt:dt=""r8"">2923154</Frequency><Timestamp dt:dt=""r8"">314382068894</Timestamp><Current dt:dt=""r8"">0</Current><DateUtc dt:dt=""string"">2017-10-10T16:39:40Z</DateUtc></FrequencyChange></FrequencyChanges></Clock>\n",Individual-003-1,59.955,?,1.0.0.476,1,850042737,Professional,2.0.10.353,2.0.10.353,10/10/2017,10/10/2017 16:39,17:39:41,2.0.10.248,1,1,1,1,M1,List1,3,3,1,3,NULL,NULL,NULL,b1,BlockList1,64,9,2,64,e,NULL,NULL,NULL,NULL,NULL,NULL,NULL,NULL,NULL,TrialProc4,b1trails1,blue,e,1,e,326
Individual,3,1,"<?xml version=""1.0""?>\n<Clock xmlns:dt=""urn:schemas-microsoft-com:datatypes""><Description dt:dt=""string"">E-Prime Primary Realtime Clock</Description><StartTime><Timestamp dt:dt=""int"">0</Timestamp><DateUtc dt:dt=""string"">2017-10-10T16:39:40Z</DateUtc></StartTime><FrequencyChanges><FrequencyChange><Frequency dt:dt=""r8"">2923154</Frequency><Timestamp dt:dt=""r8"">314382068894</Timestamp><Current dt:dt=""r8"">0</Current><DateUtc dt:dt=""string"">2017-10-10T16:39:40Z</DateUtc></FrequencyChange></FrequencyChanges></Clock>\n",Individual-003-1,59.955,?,1.0.0.476,1,850042737,Professional,2.0.10.353,2.0.10.353,10/10/2017,10/10/2017 16:39,17:39:41,2.0.10.248,1,1,1,1,M1,List1,3,3,1,3,NULL,NULL,NULL,b1,BlockList1,65,28,2,65,w,NULL,NULL,NULL,NULL,NULL,NULL,NULL,NULL,NULL,TrialProc4,b1trails1,red,e,1,w,425
Individual,3,1,"<?xml version=""1.0""?>\n<Clock xmlns:dt=""urn:schemas-microsoft-com:datatypes""><Description dt:dt=""string"">E-Prime Primary Realtime Clock</Description><StartTime><Timestamp dt:dt=""int"">0</Timestamp><DateUtc dt:dt=""string"">2017-10-10T16:39:40Z</DateUtc></StartTime><FrequencyChanges><FrequencyChange><Frequency dt:dt=""r8"">2923154</Frequency><Timestamp dt:dt=""r8"">314382068894</Timestamp><Current dt:dt=""r8"">0</Current><DateUtc dt:dt=""string"">2017-10-10T16:39:40Z</DateUtc></FrequencyChange></FrequencyChanges></Clock>\n",Individual-003-1,59.955,?,1.0.0.476,1,850042737,Professional,2.0.10.353,2.0.10.353,10/10/2017,10/10/2017 16:39,17:39:41,2.0.10.248,1,1,1,1,M1,List1,3,3,1,3,NULL,NULL,NULL,b1,BlockList1,66,48,2,66,w,NULL,NULL,NULL,NULL,NULL,NULL,NULL,NULL,NULL,TrialProc4,b1trails1,red,e,1,w,350
Individual,3,1,"<?xml version=""1.0""?>\n<Clock xmlns:dt=""urn:schemas-microsoft-com:datatypes""><Description dt:dt=""string"">E-Prime Primary Realtime Clock</Description><StartTime><Timestamp dt:dt=""int"">0</Timestamp><DateUtc dt:dt=""string"">2017-10-10T16:39:40Z</DateUtc></StartTime><FrequencyChanges><FrequencyChange><Frequency dt:dt=""r8"">2923154</Frequency><Timestamp dt:dt=""r8"">314382068894</Timestamp><Current dt:dt=""r8"">0</Current><DateUtc dt:dt=""string"">2017-10-10T16:39:40Z</DateUtc></FrequencyChange></FrequencyChanges></Clock>\n",Individual-003-1,59.955,?,1.0.0.476,1,850042737,Professional,2.0.10.353,2.0.10.353,10/10/2017,10/10/2017 16:39,17:39:41,2.0.10.248,1,1,1,1,M1,List1,3,3,1,3,NULL,NULL,NULL,b1,BlockList1,67,84,2,67,w,NULL,NULL,NULL,NULL,NULL,NULL,NULL,NULL,NULL,TrialProc4,b1trails1,red,e,1,w,338
Individual,3,1,"<?xml version=""1.0""?>\n<Clock xmlns:dt=""urn:schemas-microsoft-com:datatypes""><Description dt:dt=""string"">E-Prime Primary Realtime Clock</Description><StartTime><Timestamp dt:dt=""int"">0</Timestamp><DateUtc dt:dt=""string"">2017-10-10T16:39:40Z</DateUtc></StartTime><FrequencyChanges><FrequencyChange><Frequency dt:dt=""r8"">2923154</Frequency><Timestamp dt:dt=""r8"">314382068894</Timestamp><Current dt:dt=""r8"">0</Current><DateUtc dt:dt=""string"">2017-10-10T16:39:40Z</DateUtc></FrequencyChange></FrequencyChanges></Clock>\n",Individual-003-1,59.955,?,1.0.0.476,1,850042737,Professional,2.0.10.353,2.0.10.353,10/10/2017,10/10/2017 16:39,17:39:41,2.0.10.248,1,1,1,1,M1,List1,3,3,1,3,NULL,NULL,NULL,b1,BlockList1,68,77,2,68,e,NULL,NULL,NULL,NULL,NULL,NULL,NULL,NULL,NULL,TrialProc4,b1trails1,blue,e,1,e,409
Individual,3,1,"<?xml version=""1.0""?>\n<Clock xmlns:dt=""urn:schemas-microsoft-com:datatypes""><Description dt:dt=""string"">E-Prime Primary Realtime Clock</Description><StartTime><Timestamp dt:dt=""int"">0</Timestamp><DateUtc dt:dt=""string"">2017-10-10T16:39:40Z</DateUtc></StartTime><FrequencyChanges><FrequencyChange><Frequency dt:dt=""r8"">2923154</Frequency><Timestamp dt:dt=""r8"">314382068894</Timestamp><Current dt:dt=""r8"">0</Current><DateUtc dt:dt=""string"">2017-10-10T16:39:40Z</DateUtc></FrequencyChange></FrequencyChanges></Clock>\n",Individual-003-1,59.955,?,1.0.0.476,1,850042737,Professional,2.0.10.353,2.0.10.353,10/10/2017,10/10/2017 16:39,17:39:41,2.0.10.248,1,1,1,1,M1,List1,3,3,1,3,NULL,NULL,NULL,b1,BlockList1,69,43,2,69,w,NULL,NULL,NULL,NULL,NULL,NULL,NULL,NULL,NULL,TrialProc4,b1trails1,red,w,1,w,576
Individual,3,1,"<?xml version=""1.0""?>\n<Clock xmlns:dt=""urn:schemas-microsoft-com:datatypes""><Description dt:dt=""string"">E-Prime Primary Realtime Clock</Description><StartTime><Timestamp dt:dt=""int"">0</Timestamp><DateUtc dt:dt=""string"">2017-10-10T16:39:40Z</DateUtc></StartTime><FrequencyChanges><FrequencyChange><Frequency dt:dt=""r8"">2923154</Frequency><Timestamp dt:dt=""r8"">314382068894</Timestamp><Current dt:dt=""r8"">0</Current><DateUtc dt:dt=""string"">2017-10-10T16:39:40Z</DateUtc></FrequencyChange></FrequencyChanges></Clock>\n",Individual-003-1,59.955,?,1.0.0.476,1,850042737,Professional,2.0.10.353,2.0.10.353,10/10/2017,10/10/2017 16:39,17:39:41,2.0.10.248,1,1,1,1,M1,List1,3,3,1,3,NULL,NULL,NULL,b1,BlockList1,70,92,2,70,w,NULL,NULL,NULL,NULL,NULL,NULL,NULL,NULL,NULL,TrialProc4,b1trails1,red,e,1,w,433
Individual,3,1,"<?xml version=""1.0""?>\n<Clock xmlns:dt=""urn:schemas-microsoft-com:datatypes""><Description dt:dt=""string"">E-Prime Primary Realtime Clock</Description><StartTime><Timestamp dt:dt=""int"">0</Timestamp><DateUtc dt:dt=""string"">2017-10-10T16:39:40Z</DateUtc></StartTime><FrequencyChanges><FrequencyChange><Frequency dt:dt=""r8"">2923154</Frequency><Timestamp dt:dt=""r8"">314382068894</Timestamp><Current dt:dt=""r8"">0</Current><DateUtc dt:dt=""string"">2017-10-10T16:39:40Z</DateUtc></FrequencyChange></FrequencyChanges></Clock>\n",Individual-003-1,59.955,?,1.0.0.476,1,850042737,Professional,2.0.10.353,2.0.10.353,10/10/2017,10/10/2017 16:39,17:39:41,2.0.10.248,1,1,1,1,M1,List1,3,3,1,3,NULL,NULL,NULL,b1,BlockList1,71,37,2,71,e,NULL,NULL,NULL,NULL,NULL,NULL,NULL,NULL,NULL,TrialProc4,b1trails1,blue,e,1,e,385
Individual,3,1,"<?xml version=""1.0""?>\n<Clock xmlns:dt=""urn:schemas-microsoft-com:datatypes""><Description dt:dt=""string"">E-Prime Primary Realtime Clock</Description><StartTime><Timestamp dt:dt=""int"">0</Timestamp><DateUtc dt:dt=""string"">2017-10-10T16:39:40Z</DateUtc></StartTime><FrequencyChanges><FrequencyChange><Frequency dt:dt=""r8"">2923154</Frequency><Timestamp dt:dt=""r8"">314382068894</Timestamp><Current dt:dt=""r8"">0</Current><DateUtc dt:dt=""string"">2017-10-10T16:39:40Z</DateUtc></FrequencyChange></FrequencyChanges></Clock>\n",Individual-003-1,59.955,?,1.0.0.476,1,850042737,Professional,2.0.10.353,2.0.10.353,10/10/2017,10/10/2017 16:39,17:39:41,2.0.10.248,1,1,1,1,M1,List1,3,3,1,3,NULL,NULL,NULL,b1,BlockList1,72,44,2,72,w,NULL,NULL,NULL,NULL,NULL,NULL,NULL,NULL,NULL,TrialProc4,b1trails1,red,e,1,w,397
Individual,3,1,"<?xml version=""1.0""?>\n<Clock xmlns:dt=""urn:schemas-microsoft-com:datatypes""><Description dt:dt=""string"">E-Prime Primary Realtime Clock</Description><StartTime><Timestamp dt:dt=""int"">0</Timestamp><DateUtc dt:dt=""string"">2017-10-10T16:39:40Z</DateUtc></StartTime><FrequencyChanges><FrequencyChange><Frequency dt:dt=""r8"">2923154</Frequency><Timestamp dt:dt=""r8"">314382068894</Timestamp><Current dt:dt=""r8"">0</Current><DateUtc dt:dt=""string"">2017-10-10T16:39:40Z</DateUtc></FrequencyChange></FrequencyChanges></Clock>\n",Individual-003-1,59.955,?,1.0.0.476,1,850042737,Professional,2.0.10.353,2.0.10.353,10/10/2017,10/10/2017 16:39,17:39:41,2.0.10.248,1,1,1,1,M1,List1,3,3,1,3,NULL,NULL,NULL,b1,BlockList1,73,8,2,73,w,NULL,NULL,NULL,NULL,NULL,NULL,NULL,NULL,NULL,TrialProc4,b1trails1,red,e,1,w,354
Individual,3,1,"<?xml version=""1.0""?>\n<Clock xmlns:dt=""urn:schemas-microsoft-com:datatypes""><Description dt:dt=""string"">E-Prime Primary Realtime Clock</Description><StartTime><Timestamp dt:dt=""int"">0</Timestamp><DateUtc dt:dt=""string"">2017-10-10T16:39:40Z</DateUtc></StartTime><FrequencyChanges><FrequencyChange><Frequency dt:dt=""r8"">2923154</Frequency><Timestamp dt:dt=""r8"">314382068894</Timestamp><Current dt:dt=""r8"">0</Current><DateUtc dt:dt=""string"">2017-10-10T16:39:40Z</DateUtc></FrequencyChange></FrequencyChanges></Clock>\n",Individual-003-1,59.955,?,1.0.0.476,1,850042737,Professional,2.0.10.353,2.0.10.353,10/10/2017,10/10/2017 16:39,17:39:41,2.0.10.248,1,1,1,1,M1,List1,3,3,1,3,NULL,NULL,NULL,b1,BlockList1,74,32,2,74,w,NULL,NULL,NULL,NULL,NULL,NULL,NULL,NULL,NULL,TrialProc4,b1trails1,red,e,1,w,320
Individual,3,1,"<?xml version=""1.0""?>\n<Clock xmlns:dt=""urn:schemas-microsoft-com:datatypes""><Description dt:dt=""string"">E-Prime Primary Realtime Clock</Description><StartTime><Timestamp dt:dt=""int"">0</Timestamp><DateUtc dt:dt=""string"">2017-10-10T16:39:40Z</DateUtc></StartTime><FrequencyChanges><FrequencyChange><Frequency dt:dt=""r8"">2923154</Frequency><Timestamp dt:dt=""r8"">314382068894</Timestamp><Current dt:dt=""r8"">0</Current><DateUtc dt:dt=""string"">2017-10-10T16:39:40Z</DateUtc></FrequencyChange></FrequencyChanges></Clock>\n",Individual-003-1,59.955,?,1.0.0.476,1,850042737,Professional,2.0.10.353,2.0.10.353,10/10/2017,10/10/2017 16:39,17:39:41,2.0.10.248,1,1,1,1,M1,List1,3,3,1,3,NULL,NULL,NULL,b1,BlockList1,75,13,2,75,e,NULL,NULL,NULL,NULL,NULL,NULL,NULL,NULL,NULL,TrialProc4,b1trails1,blue,e,1,e,352
Individual,3,1,"<?xml version=""1.0""?>\n<Clock xmlns:dt=""urn:schemas-microsoft-com:datatypes""><Description dt:dt=""string"">E-Prime Primary Realtime Clock</Description><StartTime><Timestamp dt:dt=""int"">0</Timestamp><DateUtc dt:dt=""string"">2017-10-10T16:39:40Z</DateUtc></StartTime><FrequencyChanges><FrequencyChange><Frequency dt:dt=""r8"">2923154</Frequency><Timestamp dt:dt=""r8"">314382068894</Timestamp><Current dt:dt=""r8"">0</Current><DateUtc dt:dt=""string"">2017-10-10T16:39:40Z</DateUtc></FrequencyChange></FrequencyChanges></Clock>\n",Individual-003-1,59.955,?,1.0.0.476,1,850042737,Professional,2.0.10.353,2.0.10.353,10/10/2017,10/10/2017 16:39,17:39:41,2.0.10.248,1,1,1,1,M1,List1,3,3,1,3,NULL,NULL,NULL,b1,BlockList1,76,42,2,76,e,NULL,NULL,NULL,NULL,NULL,NULL,NULL,NULL,NULL,TrialProc4,b1trails1,blue,w,1,e,428
Individual,3,1,"<?xml version=""1.0""?>\n<Clock xmlns:dt=""urn:schemas-microsoft-com:datatypes""><Description dt:dt=""string"">E-Prime Primary Realtime Clock</Description><StartTime><Timestamp dt:dt=""int"">0</Timestamp><DateUtc dt:dt=""string"">2017-10-10T16:39:40Z</DateUtc></StartTime><FrequencyChanges><FrequencyChange><Frequency dt:dt=""r8"">2923154</Frequency><Timestamp dt:dt=""r8"">314382068894</Timestamp><Current dt:dt=""r8"">0</Current><DateUtc dt:dt=""string"">2017-10-10T16:39:40Z</DateUtc></FrequencyChange></FrequencyChanges></Clock>\n",Individual-003-1,59.955,?,1.0.0.476,1,850042737,Professional,2.0.10.353,2.0.10.353,10/10/2017,10/10/2017 16:39,17:39:41,2.0.10.248,1,1,1,1,M1,List1,3,3,1,3,NULL,NULL,NULL,b1,BlockList1,77,41,2,77,e,NULL,NULL,NULL,NULL,NULL,NULL,NULL,NULL,NULL,TrialProc4,b1trails1,blue,e,1,e,416
Individual,3,1,"<?xml version=""1.0""?>\n<Clock xmlns:dt=""urn:schemas-microsoft-com:datatypes""><Description dt:dt=""string"">E-Prime Primary Realtime Clock</Description><StartTime><Timestamp dt:dt=""int"">0</Timestamp><DateUtc dt:dt=""string"">2017-10-10T16:39:40Z</DateUtc></StartTime><FrequencyChanges><FrequencyChange><Frequency dt:dt=""r8"">2923154</Frequency><Timestamp dt:dt=""r8"">314382068894</Timestamp><Current dt:dt=""r8"">0</Current><DateUtc dt:dt=""string"">2017-10-10T16:39:40Z</DateUtc></FrequencyChange></FrequencyChanges></Clock>\n",Individual-003-1,59.955,?,1.0.0.476,1,850042737,Professional,2.0.10.353,2.0.10.353,10/10/2017,10/10/2017 16:39,17:39:41,2.0.10.248,1,1,1,1,M1,List1,3,3,1,3,NULL,NULL,NULL,b1,BlockList1,78,20,2,78,w,NULL,NULL,NULL,NULL,NULL,NULL,NULL,NULL,NULL,TrialProc4,b1trails1,red,e,1,w,581
Individual,3,1,"<?xml version=""1.0""?>\n<Clock xmlns:dt=""urn:schemas-microsoft-com:datatypes""><Description dt:dt=""string"">E-Prime Primary Realtime Clock</Description><StartTime><Timestamp dt:dt=""int"">0</Timestamp><DateUtc dt:dt=""string"">2017-10-10T16:39:40Z</DateUtc></StartTime><FrequencyChanges><FrequencyChange><Frequency dt:dt=""r8"">2923154</Frequency><Timestamp dt:dt=""r8"">314382068894</Timestamp><Current dt:dt=""r8"">0</Current><DateUtc dt:dt=""string"">2017-10-10T16:39:40Z</DateUtc></FrequencyChange></FrequencyChanges></Clock>\n",Individual-003-1,59.955,?,1.0.0.476,1,850042737,Professional,2.0.10.353,2.0.10.353,10/10/2017,10/10/2017 16:39,17:39:41,2.0.10.248,1,1,1,1,M1,List1,3,3,1,3,NULL,NULL,NULL,b1,BlockList1,79,18,2,79,e,NULL,NULL,NULL,NULL,NULL,NULL,NULL,NULL,NULL,TrialProc4,b1trails1,blue,w,1,e,562
Individual,3,1,"<?xml version=""1.0""?>\n<Clock xmlns:dt=""urn:schemas-microsoft-com:datatypes""><Description dt:dt=""string"">E-Prime Primary Realtime Clock</Description><StartTime><Timestamp dt:dt=""int"">0</Timestamp><DateUtc dt:dt=""string"">2017-10-10T16:39:40Z</DateUtc></StartTime><FrequencyChanges><FrequencyChange><Frequency dt:dt=""r8"">2923154</Frequency><Timestamp dt:dt=""r8"">314382068894</Timestamp><Current dt:dt=""r8"">0</Current><DateUtc dt:dt=""string"">2017-10-10T16:39:40Z</DateUtc></FrequencyChange></FrequencyChanges></Clock>\n",Individual-003-1,59.955,?,1.0.0.476,1,850042737,Professional,2.0.10.353,2.0.10.353,10/10/2017,10/10/2017 16:39,17:39:41,2.0.10.248,1,1,1,1,M1,List1,3,3,1,3,NULL,NULL,NULL,b1,BlockList1,80,11,2,80,w,NULL,NULL,NULL,NULL,NULL,NULL,NULL,NULL,NULL,TrialProc4,b1trails1,red,w,1,w,625
Individual,3,1,"<?xml version=""1.0""?>\n<Clock xmlns:dt=""urn:schemas-microsoft-com:datatypes""><Description dt:dt=""string"">E-Prime Primary Realtime Clock</Description><StartTime><Timestamp dt:dt=""int"">0</Timestamp><DateUtc dt:dt=""string"">2017-10-10T16:39:40Z</DateUtc></StartTime><FrequencyChanges><FrequencyChange><Frequency dt:dt=""r8"">2923154</Frequency><Timestamp dt:dt=""r8"">314382068894</Timestamp><Current dt:dt=""r8"">0</Current><DateUtc dt:dt=""string"">2017-10-10T16:39:40Z</DateUtc></FrequencyChange></FrequencyChanges></Clock>\n",Individual-003-1,59.955,?,1.0.0.476,1,850042737,Professional,2.0.10.353,2.0.10.353,10/10/2017,10/10/2017 16:39,17:39:41,2.0.10.248,1,1,1,1,M1,List1,3,3,1,3,NULL,NULL,NULL,b1,BlockList1,81,30,2,81,e,NULL,NULL,NULL,NULL,NULL,NULL,NULL,NULL,NULL,TrialProc4,b1trails1,blue,w,1,e,397
Individual,3,1,"<?xml version=""1.0""?>\n<Clock xmlns:dt=""urn:schemas-microsoft-com:datatypes""><Description dt:dt=""string"">E-Prime Primary Realtime Clock</Description><StartTime><Timestamp dt:dt=""int"">0</Timestamp><DateUtc dt:dt=""string"">2017-10-10T16:39:40Z</DateUtc></StartTime><FrequencyChanges><FrequencyChange><Frequency dt:dt=""r8"">2923154</Frequency><Timestamp dt:dt=""r8"">314382068894</Timestamp><Current dt:dt=""r8"">0</Current><DateUtc dt:dt=""string"">2017-10-10T16:39:40Z</DateUtc></FrequencyChange></FrequencyChanges></Clock>\n",Individual-003-1,59.955,?,1.0.0.476,1,850042737,Professional,2.0.10.353,2.0.10.353,10/10/2017,10/10/2017 16:39,17:39:41,2.0.10.248,1,1,1,1,M1,List1,3,3,1,3,NULL,NULL,NULL,b1,BlockList1,82,70,2,82,e,NULL,NULL,NULL,NULL,NULL,NULL,NULL,NULL,NULL,TrialProc4,b1trails1,blue,w,1,e,474
Individual,3,1,"<?xml version=""1.0""?>\n<Clock xmlns:dt=""urn:schemas-microsoft-com:datatypes""><Description dt:dt=""string"">E-Prime Primary Realtime Clock</Description><StartTime><Timestamp dt:dt=""int"">0</Timestamp><DateUtc dt:dt=""string"">2017-10-10T16:39:40Z</DateUtc></StartTime><FrequencyChanges><FrequencyChange><Frequency dt:dt=""r8"">2923154</Frequency><Timestamp dt:dt=""r8"">314382068894</Timestamp><Current dt:dt=""r8"">0</Current><DateUtc dt:dt=""string"">2017-10-10T16:39:40Z</DateUtc></FrequencyChange></FrequencyChanges></Clock>\n",Individual-003-1,59.955,?,1.0.0.476,1,850042737,Professional,2.0.10.353,2.0.10.353,10/10/2017,10/10/2017 16:39,17:39:41,2.0.10.248,1,1,1,1,M1,List1,3,3,1,3,NULL,NULL,NULL,b1,BlockList1,83,56,2,83,w,NULL,NULL,NULL,NULL,NULL,NULL,NULL,NULL,NULL,TrialProc4,b1trails1,red,e,1,w,484
Individual,3,1,"<?xml version=""1.0""?>\n<Clock xmlns:dt=""urn:schemas-microsoft-com:datatypes""><Description dt:dt=""string"">E-Prime Primary Realtime Clock</Description><StartTime><Timestamp dt:dt=""int"">0</Timestamp><DateUtc dt:dt=""string"">2017-10-10T16:39:40Z</DateUtc></StartTime><FrequencyChanges><FrequencyChange><Frequency dt:dt=""r8"">2923154</Frequency><Timestamp dt:dt=""r8"">314382068894</Timestamp><Current dt:dt=""r8"">0</Current><DateUtc dt:dt=""string"">2017-10-10T16:39:40Z</DateUtc></FrequencyChange></FrequencyChanges></Clock>\n",Individual-003-1,59.955,?,1.0.0.476,1,850042737,Professional,2.0.10.353,2.0.10.353,10/10/2017,10/10/2017 16:39,17:39:41,2.0.10.248,1,1,1,1,M1,List1,3,3,1,3,NULL,NULL,NULL,b1,BlockList1,84,29,2,84,e,NULL,NULL,NULL,NULL,NULL,NULL,NULL,NULL,NULL,TrialProc4,b1trails1,blue,e,1,e,541
Individual,3,1,"<?xml version=""1.0""?>\n<Clock xmlns:dt=""urn:schemas-microsoft-com:datatypes""><Description dt:dt=""string"">E-Prime Primary Realtime Clock</Description><StartTime><Timestamp dt:dt=""int"">0</Timestamp><DateUtc dt:dt=""string"">2017-10-10T16:39:40Z</DateUtc></StartTime><FrequencyChanges><FrequencyChange><Frequency dt:dt=""r8"">2923154</Frequency><Timestamp dt:dt=""r8"">314382068894</Timestamp><Current dt:dt=""r8"">0</Current><DateUtc dt:dt=""string"">2017-10-10T16:39:40Z</DateUtc></FrequencyChange></FrequencyChanges></Clock>\n",Individual-003-1,59.955,?,1.0.0.476,1,850042737,Professional,2.0.10.353,2.0.10.353,10/10/2017,10/10/2017 16:39,17:39:41,2.0.10.248,1,1,1,1,M1,List1,3,3,1,3,NULL,NULL,NULL,b1,BlockList1,85,69,2,85,e,NULL,NULL,NULL,NULL,NULL,NULL,NULL,NULL,NULL,TrialProc4,b1trails1,blue,e,1,e,392
Individual,3,1,"<?xml version=""1.0""?>\n<Clock xmlns:dt=""urn:schemas-microsoft-com:datatypes""><Description dt:dt=""string"">E-Prime Primary Realtime Clock</Description><StartTime><Timestamp dt:dt=""int"">0</Timestamp><DateUtc dt:dt=""string"">2017-10-10T16:39:40Z</DateUtc></StartTime><FrequencyChanges><FrequencyChange><Frequency dt:dt=""r8"">2923154</Frequency><Timestamp dt:dt=""r8"">314382068894</Timestamp><Current dt:dt=""r8"">0</Current><DateUtc dt:dt=""string"">2017-10-10T16:39:40Z</DateUtc></FrequencyChange></FrequencyChanges></Clock>\n",Individual-003-1,59.955,?,1.0.0.476,1,850042737,Professional,2.0.10.353,2.0.10.353,10/10/2017,10/10/2017 16:39,17:39:41,2.0.10.248,1,1,1,1,M1,List1,3,3,1,3,NULL,NULL,NULL,b1,BlockList1,86,47,2,86,w,NULL,NULL,NULL,NULL,NULL,NULL,NULL,NULL,NULL,TrialProc4,b1trails1,red,w,1,w,583
Individual,3,1,"<?xml version=""1.0""?>\n<Clock xmlns:dt=""urn:schemas-microsoft-com:datatypes""><Description dt:dt=""string"">E-Prime Primary Realtime Clock</Description><StartTime><Timestamp dt:dt=""int"">0</Timestamp><DateUtc dt:dt=""string"">2017-10-10T16:39:40Z</DateUtc></StartTime><FrequencyChanges><FrequencyChange><Frequency dt:dt=""r8"">2923154</Frequency><Timestamp dt:dt=""r8"">314382068894</Timestamp><Current dt:dt=""r8"">0</Current><DateUtc dt:dt=""string"">2017-10-10T16:39:40Z</DateUtc></FrequencyChange></FrequencyChanges></Clock>\n",Individual-003-1,59.955,?,1.0.0.476,1,850042737,Professional,2.0.10.353,2.0.10.353,10/10/2017,10/10/2017 16:39,17:39:41,2.0.10.248,1,1,1,1,M1,List1,3,3,1,3,NULL,NULL,NULL,b1,BlockList1,87,87,2,87,w,NULL,NULL,NULL,NULL,NULL,NULL,NULL,NULL,NULL,TrialProc4,b1trails1,red,w,1,w,604
Individual,3,1,"<?xml version=""1.0""?>\n<Clock xmlns:dt=""urn:schemas-microsoft-com:datatypes""><Description dt:dt=""string"">E-Prime Primary Realtime Clock</Description><StartTime><Timestamp dt:dt=""int"">0</Timestamp><DateUtc dt:dt=""string"">2017-10-10T16:39:40Z</DateUtc></StartTime><FrequencyChanges><FrequencyChange><Frequency dt:dt=""r8"">2923154</Frequency><Timestamp dt:dt=""r8"">314382068894</Timestamp><Current dt:dt=""r8"">0</Current><DateUtc dt:dt=""string"">2017-10-10T16:39:40Z</DateUtc></FrequencyChange></FrequencyChanges></Clock>\n",Individual-003-1,59.955,?,1.0.0.476,1,850042737,Professional,2.0.10.353,2.0.10.353,10/10/2017,10/10/2017 16:39,17:39:41,2.0.10.248,1,1,1,1,M1,List1,3,3,1,3,NULL,NULL,NULL,b1,BlockList1,88,17,2,88,e,NULL,NULL,NULL,NULL,NULL,NULL,NULL,NULL,NULL,TrialProc4,b1trails1,blue,e,1,e,439
Individual,3,1,"<?xml version=""1.0""?>\n<Clock xmlns:dt=""urn:schemas-microsoft-com:datatypes""><Description dt:dt=""string"">E-Prime Primary Realtime Clock</Description><StartTime><Timestamp dt:dt=""int"">0</Timestamp><DateUtc dt:dt=""string"">2017-10-10T16:39:40Z</DateUtc></StartTime><FrequencyChanges><FrequencyChange><Frequency dt:dt=""r8"">2923154</Frequency><Timestamp dt:dt=""r8"">314382068894</Timestamp><Current dt:dt=""r8"">0</Current><DateUtc dt:dt=""string"">2017-10-10T16:39:40Z</DateUtc></FrequencyChange></FrequencyChanges></Clock>\n",Individual-003-1,59.955,?,1.0.0.476,1,850042737,Professional,2.0.10.353,2.0.10.353,10/10/2017,10/10/2017 16:39,17:39:41,2.0.10.248,1,1,1,1,M1,List1,3,3,1,3,NULL,NULL,NULL,b1,BlockList1,89,80,2,89,w,NULL,NULL,NULL,NULL,NULL,NULL,NULL,NULL,NULL,TrialProc4,b1trails1,red,e,1,w,388
Individual,3,1,"<?xml version=""1.0""?>\n<Clock xmlns:dt=""urn:schemas-microsoft-com:datatypes""><Description dt:dt=""string"">E-Prime Primary Realtime Clock</Description><StartTime><Timestamp dt:dt=""int"">0</Timestamp><DateUtc dt:dt=""string"">2017-10-10T16:39:40Z</DateUtc></StartTime><FrequencyChanges><FrequencyChange><Frequency dt:dt=""r8"">2923154</Frequency><Timestamp dt:dt=""r8"">314382068894</Timestamp><Current dt:dt=""r8"">0</Current><DateUtc dt:dt=""string"">2017-10-10T16:39:40Z</DateUtc></FrequencyChange></FrequencyChanges></Clock>\n",Individual-003-1,59.955,?,1.0.0.476,1,850042737,Professional,2.0.10.353,2.0.10.353,10/10/2017,10/10/2017 16:39,17:39:41,2.0.10.248,1,1,1,1,M1,List1,3,3,1,3,NULL,NULL,NULL,b1,BlockList1,90,64,2,90,w,NULL,NULL,NULL,NULL,NULL,NULL,NULL,NULL,NULL,TrialProc4,b1trails1,red,e,1,w,388
Individual,3,1,"<?xml version=""1.0""?>\n<Clock xmlns:dt=""urn:schemas-microsoft-com:datatypes""><Description dt:dt=""string"">E-Prime Primary Realtime Clock</Description><StartTime><Timestamp dt:dt=""int"">0</Timestamp><DateUtc dt:dt=""string"">2017-10-10T16:39:40Z</DateUtc></StartTime><FrequencyChanges><FrequencyChange><Frequency dt:dt=""r8"">2923154</Frequency><Timestamp dt:dt=""r8"">314382068894</Timestamp><Current dt:dt=""r8"">0</Current><DateUtc dt:dt=""string"">2017-10-10T16:39:40Z</DateUtc></FrequencyChange></FrequencyChanges></Clock>\n",Individual-003-1,59.955,?,1.0.0.476,1,850042737,Professional,2.0.10.353,2.0.10.353,10/10/2017,10/10/2017 16:39,17:39:41,2.0.10.248,1,1,1,1,M1,List1,3,3,1,3,NULL,NULL,NULL,b1,BlockList1,91,3,2,91,w,NULL,NULL,NULL,NULL,NULL,NULL,NULL,NULL,NULL,TrialProc4,b1trails1,red,w,1,w,381
Individual,3,1,"<?xml version=""1.0""?>\n<Clock xmlns:dt=""urn:schemas-microsoft-com:datatypes""><Description dt:dt=""string"">E-Prime Primary Realtime Clock</Description><StartTime><Timestamp dt:dt=""int"">0</Timestamp><DateUtc dt:dt=""string"">2017-10-10T16:39:40Z</DateUtc></StartTime><FrequencyChanges><FrequencyChange><Frequency dt:dt=""r8"">2923154</Frequency><Timestamp dt:dt=""r8"">314382068894</Timestamp><Current dt:dt=""r8"">0</Current><DateUtc dt:dt=""string"">2017-10-10T16:39:40Z</DateUtc></FrequencyChange></FrequencyChanges></Clock>\n",Individual-003-1,59.955,?,1.0.0.476,1,850042737,Professional,2.0.10.353,2.0.10.353,10/10/2017,10/10/2017 16:39,17:39:41,2.0.10.248,1,1,1,1,M1,List1,3,3,1,3,NULL,NULL,NULL,b1,BlockList1,92,85,2,92,e,NULL,NULL,NULL,NULL,NULL,NULL,NULL,NULL,NULL,TrialProc4,b1trails1,blue,e,1,e,317
Individual,3,1,"<?xml version=""1.0""?>\n<Clock xmlns:dt=""urn:schemas-microsoft-com:datatypes""><Description dt:dt=""string"">E-Prime Primary Realtime Clock</Description><StartTime><Timestamp dt:dt=""int"">0</Timestamp><DateUtc dt:dt=""string"">2017-10-10T16:39:40Z</DateUtc></StartTime><FrequencyChanges><FrequencyChange><Frequency dt:dt=""r8"">2923154</Frequency><Timestamp dt:dt=""r8"">314382068894</Timestamp><Current dt:dt=""r8"">0</Current><DateUtc dt:dt=""string"">2017-10-10T16:39:40Z</DateUtc></FrequencyChange></FrequencyChanges></Clock>\n",Individual-003-1,59.955,?,1.0.0.476,1,850042737,Professional,2.0.10.353,2.0.10.353,10/10/2017,10/10/2017 16:39,17:39:41,2.0.10.248,1,1,1,1,M1,List1,3,3,1,3,NULL,NULL,NULL,b1,BlockList1,93,95,2,93,w,NULL,NULL,NULL,NULL,NULL,NULL,NULL,NULL,NULL,TrialProc4,b1trails1,red,w,1,w,577
Individual,3,1,"<?xml version=""1.0""?>\n<Clock xmlns:dt=""urn:schemas-microsoft-com:datatypes""><Description dt:dt=""string"">E-Prime Primary Realtime Clock</Description><StartTime><Timestamp dt:dt=""int"">0</Timestamp><DateUtc dt:dt=""string"">2017-10-10T16:39:40Z</DateUtc></StartTime><FrequencyChanges><FrequencyChange><Frequency dt:dt=""r8"">2923154</Frequency><Timestamp dt:dt=""r8"">314382068894</Timestamp><Current dt:dt=""r8"">0</Current><DateUtc dt:dt=""string"">2017-10-10T16:39:40Z</DateUtc></FrequencyChange></FrequencyChanges></Clock>\n",Individual-003-1,59.955,?,1.0.0.476,1,850042737,Professional,2.0.10.353,2.0.10.353,10/10/2017,10/10/2017 16:39,17:39:41,2.0.10.248,1,1,1,1,M1,List1,3,3,1,3,NULL,NULL,NULL,b1,BlockList1,94,35,2,94,w,NULL,NULL,NULL,NULL,NULL,NULL,NULL,NULL,NULL,TrialProc4,b1trails1,red,w,1,w,317
Individual,3,1,"<?xml version=""1.0""?>\n<Clock xmlns:dt=""urn:schemas-microsoft-com:datatypes""><Description dt:dt=""string"">E-Prime Primary Realtime Clock</Description><StartTime><Timestamp dt:dt=""int"">0</Timestamp><DateUtc dt:dt=""string"">2017-10-10T16:39:40Z</DateUtc></StartTime><FrequencyChanges><FrequencyChange><Frequency dt:dt=""r8"">2923154</Frequency><Timestamp dt:dt=""r8"">314382068894</Timestamp><Current dt:dt=""r8"">0</Current><DateUtc dt:dt=""string"">2017-10-10T16:39:40Z</DateUtc></FrequencyChange></FrequencyChanges></Clock>\n",Individual-003-1,59.955,?,1.0.0.476,1,850042737,Professional,2.0.10.353,2.0.10.353,10/10/2017,10/10/2017 16:39,17:39:41,2.0.10.248,1,1,1,1,M1,List1,3,3,1,3,NULL,NULL,NULL,b1,BlockList1,95,5,2,95,e,NULL,NULL,NULL,NULL,NULL,NULL,NULL,NULL,NULL,TrialProc4,b1trails1,blue,e,1,e,281
Individual,3,1,"<?xml version=""1.0""?>\n<Clock xmlns:dt=""urn:schemas-microsoft-com:datatypes""><Description dt:dt=""string"">E-Prime Primary Realtime Clock</Description><StartTime><Timestamp dt:dt=""int"">0</Timestamp><DateUtc dt:dt=""string"">2017-10-10T16:39:40Z</DateUtc></StartTime><FrequencyChanges><FrequencyChange><Frequency dt:dt=""r8"">2923154</Frequency><Timestamp dt:dt=""r8"">314382068894</Timestamp><Current dt:dt=""r8"">0</Current><DateUtc dt:dt=""string"">2017-10-10T16:39:40Z</DateUtc></FrequencyChange></FrequencyChanges></Clock>\n",Individual-003-1,59.955,?,1.0.0.476,1,850042737,Professional,2.0.10.353,2.0.10.353,10/10/2017,10/10/2017 16:39,17:39:41,2.0.10.248,1,1,1,1,M1,List1,3,3,1,3,NULL,NULL,NULL,b1,BlockList1,96,54,2,96,e,NULL,NULL,NULL,NULL,NULL,NULL,NULL,NULL,NULL,TrialProc4,b1trails1,blue,w,1,e,441
Individual,3,1,"<?xml version=""1.0""?>\n<Clock xmlns:dt=""urn:schemas-microsoft-com:datatypes""><Description dt:dt=""string"">E-Prime Primary Realtime Clock</Description><StartTime><Timestamp dt:dt=""int"">0</Timestamp><DateUtc dt:dt=""string"">2017-10-10T16:39:40Z</DateUtc></StartTime><FrequencyChanges><FrequencyChange><Frequency dt:dt=""r8"">2923154</Frequency><Timestamp dt:dt=""r8"">314382068894</Timestamp><Current dt:dt=""r8"">0</Current><DateUtc dt:dt=""string"">2017-10-10T16:39:40Z</DateUtc></FrequencyChange></FrequencyChanges></Clock>\n",Individual-003-1,59.955,?,1.0.0.476,1,850042737,Professional,2.0.10.353,2.0.10.353,10/10/2017,10/10/2017 16:39,17:39:41,2.0.10.248,2,2,1,2,M2,List1,1,NULL,NULL,NULL,1,1,1,PracTrial2,BlockList2,1,NULL,NULL,NULL,e,NULL,NULL,NULL,NULL,NULL,NULL,4,2,1,TrialProc,PracTrials2,red,e,1,e,386
Individual,3,1,"<?xml version=""1.0""?>\n<Clock xmlns:dt=""urn:schemas-microsoft-com:datatypes""><Description dt:dt=""string"">E-Prime Primary Realtime Clock</Description><StartTime><Timestamp dt:dt=""int"">0</Timestamp><DateUtc dt:dt=""string"">2017-10-10T16:39:40Z</DateUtc></StartTime><FrequencyChanges><FrequencyChange><Frequency dt:dt=""r8"">2923154</Frequency><Timestamp dt:dt=""r8"">314382068894</Timestamp><Current dt:dt=""r8"">0</Current><DateUtc dt:dt=""string"">2017-10-10T16:39:40Z</DateUtc></FrequencyChange></FrequencyChanges></Clock>\n",Individual-003-1,59.955,?,1.0.0.476,1,850042737,Professional,2.0.10.353,2.0.10.353,10/10/2017,10/10/2017 16:39,17:39:41,2.0.10.248,2,2,1,2,M2,List1,1,NULL,NULL,NULL,1,1,1,PracTrial2,BlockList2,2,NULL,NULL,NULL,w,NULL,NULL,NULL,NULL,NULL,NULL,10,2,2,TrialProc,PracTrials2,blue,w,1,w,378
Individual,3,1,"<?xml version=""1.0""?>\n<Clock xmlns:dt=""urn:schemas-microsoft-com:datatypes""><Description dt:dt=""string"">E-Prime Primary Realtime Clock</Description><StartTime><Timestamp dt:dt=""int"">0</Timestamp><DateUtc dt:dt=""string"">2017-10-10T16:39:40Z</DateUtc></StartTime><FrequencyChanges><FrequencyChange><Frequency dt:dt=""r8"">2923154</Frequency><Timestamp dt:dt=""r8"">314382068894</Timestamp><Current dt:dt=""r8"">0</Current><DateUtc dt:dt=""string"">2017-10-10T16:39:40Z</DateUtc></FrequencyChange></FrequencyChanges></Clock>\n",Individual-003-1,59.955,?,1.0.0.476,1,850042737,Professional,2.0.10.353,2.0.10.353,10/10/2017,10/10/2017 16:39,17:39:41,2.0.10.248,2,2,1,2,M2,List1,1,NULL,NULL,NULL,1,1,1,PracTrial2,BlockList2,3,NULL,NULL,NULL,e,NULL,NULL,NULL,NULL,NULL,NULL,8,2,3,TrialProc,PracTrials2,red,e,1,e,639
Individual,3,1,"<?xml version=""1.0""?>\n<Clock xmlns:dt=""urn:schemas-microsoft-com:datatypes""><Description dt:dt=""string"">E-Prime Primary Realtime Clock</Description><StartTime><Timestamp dt:dt=""int"">0</Timestamp><DateUtc dt:dt=""string"">2017-10-10T16:39:40Z</DateUtc></StartTime><FrequencyChanges><FrequencyChange><Frequency dt:dt=""r8"">2923154</Frequency><Timestamp dt:dt=""r8"">314382068894</Timestamp><Current dt:dt=""r8"">0</Current><DateUtc dt:dt=""string"">2017-10-10T16:39:40Z</DateUtc></FrequencyChange></FrequencyChanges></Clock>\n",Individual-003-1,59.955,?,1.0.0.476,1,850042737,Professional,2.0.10.353,2.0.10.353,10/10/2017,10/10/2017 16:39,17:39:41,2.0.10.248,2,2,1,2,M2,List1,1,NULL,NULL,NULL,1,1,1,PracTrial2,BlockList2,4,NULL,NULL,NULL,e,NULL,NULL,NULL,NULL,NULL,NULL,11,2,4,TrialProc,PracTrials2,red,w,1,e,662
Individual,3,1,"<?xml version=""1.0""?>\n<Clock xmlns:dt=""urn:schemas-microsoft-com:datatypes""><Description dt:dt=""string"">E-Prime Primary Realtime Clock</Description><StartTime><Timestamp dt:dt=""int"">0</Timestamp><DateUtc dt:dt=""string"">2017-10-10T16:39:40Z</DateUtc></StartTime><FrequencyChanges><FrequencyChange><Frequency dt:dt=""r8"">2923154</Frequency><Timestamp dt:dt=""r8"">314382068894</Timestamp><Current dt:dt=""r8"">0</Current><DateUtc dt:dt=""string"">2017-10-10T16:39:40Z</DateUtc></FrequencyChange></FrequencyChanges></Clock>\n",Individual-003-1,59.955,?,1.0.0.476,1,850042737,Professional,2.0.10.353,2.0.10.353,10/10/2017,10/10/2017 16:39,17:39:41,2.0.10.248,2,2,1,2,M2,List1,1,NULL,NULL,NULL,1,1,1,PracTrial2,BlockList2,5,NULL,NULL,NULL,w,NULL,NULL,NULL,NULL,NULL,NULL,13,2,5,TrialProc,PracTrials2,blue,e,1,w,366
Individual,3,1,"<?xml version=""1.0""?>\n<Clock xmlns:dt=""urn:schemas-microsoft-com:datatypes""><Description dt:dt=""string"">E-Prime Primary Realtime Clock</Description><StartTime><Timestamp dt:dt=""int"">0</Timestamp><DateUtc dt:dt=""string"">2017-10-10T16:39:40Z</DateUtc></StartTime><FrequencyChanges><FrequencyChange><Frequency dt:dt=""r8"">2923154</Frequency><Timestamp dt:dt=""r8"">314382068894</Timestamp><Current dt:dt=""r8"">0</Current><DateUtc dt:dt=""string"">2017-10-10T16:39:40Z</DateUtc></FrequencyChange></FrequencyChanges></Clock>\n",Individual-003-1,59.955,?,1.0.0.476,1,850042737,Professional,2.0.10.353,2.0.10.353,10/10/2017,10/10/2017 16:39,17:39:41,2.0.10.248,2,2,1,2,M2,List1,1,NULL,NULL,NULL,1,1,1,PracTrial2,BlockList2,6,NULL,NULL,NULL,e,NULL,NULL,NULL,NULL,NULL,NULL,16,2,6,TrialProc,PracTrials2,red,e,1,e,339
