ExperimentName,Subject,Session,Clock.Information,DataFile.Basename,Display1.RefreshRate,Display2.RefreshRate,ExperimentVersion,Group,RandomSeed,RuntimeCapabilities,RuntimeVersion,RuntimeVersionExpected,SessionDate,SessionStartDateTimeUtc,SessionTime,StudioVersion,Block,List1,List1.Cycle,List1.Sample,Procedure[Block],Running[Block],Trial,BlockList1,BlockList1.Cycle,BlockList1.Sample,BlockList2,BlockList2.Cycle,BlockList2.Sample,Procedure[Trial],Running[Trial],SubTrial,b1trails1,b1trails1.Cycle,b1trails1.Sample,CorrectSubj1,List2,List2.Cycle,List2.Sample,PracTrials1,PracTrials1.Cycle,PracTrials1.Sample,PracTrials2,PracTrials2.Cycle,PracTrials2.Sample,Procedure[SubTrial],Running[SubTrial],Screen1_Obj_Colour,Screen_1_Obj_Pos,Subject1ACC,Subject1RESP,Subject1RT
Individual,4,1,"<?xml version=""1.0""?>\n<Clock xmlns:dt=""urn:schemas-microsoft-com:datatypes""><Description dt:dt=""string"">E-Prime Primary Realtime Clock</Description><StartTime><Timestamp dt:dt=""int"">0</Timestamp><DateUtc dt:dt=""string"">2017-10-10T17:16:16Z</DateUtc></StartTime><FrequencyChanges><FrequencyChange><Frequency dt:dt=""r8"">2923154</Frequency><Timestamp dt:dt=""r8"">320799132749</Timestamp><Current dt:dt=""r8"">0</Current><DateUtc dt:dt=""string"">2017-10-10T17:16:16Z</DateUtc></FrequencyChange></FrequencyChanges></Clock>\n",Individual-004-1,59.955,?,1.0.0.478,1,-1322845622,Professional,2.0.10.353,2.0.10.353,10/10/2017,10/10/2017 17:16,18:16:16,2.0.10.248,1,1,1,1,M1,List1,1,1,1,1,NULL,NULL,NULL,Prac1,BlockList1,1,NULL,NULL,NULL,e,NULL,NULL,NULL,5,2,1,NULL,NULL,NULL,TrialProc47,PracTrials1,blue,e,1,e,2530
Individual,4,1,"<?xml version=""1.0""?>\n<Clock xmlns:dt=""urn:schemas-microsoft-com:datatypes""><Description dt:dt=""string"">E-Prime Primary Realtime Clock</Description><StartTime><Timestamp dt:dt=""int"">0</Timestamp><DateUtc dt:dt=""string"">2017-10-10T17:16:16Z</DateUtc></StartTime><FrequencyChanges><FrequencyChange><Frequency dt:dt=""r8"">2923154</Frequency><Timestamp dt:dt=""r8"">320799132749</Timestamp><Current dt:dt=""r8"">0</Current><DateUtc dt:dt=""string"">2017-10-10T17:16:16Z</DateUtc></FrequencyChange></FrequencyChanges></Clock>\n",Individual-004-1,59.955,?,1.0.0.478,1,-1322845622,Professional,2.0.10.353,2.0.10.353,10/10/2017,10/10/2017 17:16,18:16:16,2.0.10.248,1,1,1,1,M1,List1,1,1,1,1,NULL,NULL,NULL,Prac1,BlockList1,2,NULL,NULL,NULL,w,NULL,NULL,NULL,16,2,2,NULL,NULL,NULL,TrialProc47,PracTrials1,red,e,1,w,577
Individual,4,1,"<?xml version=""1.0""?>\n<Clock xmlns:dt=""urn:schemas-microsoft-com:datatypes""><Description dt:dt=""string"">E-Prime Primary Realtime Clock</Description><StartTime><Timestamp dt:dt=""int"">0</Timestamp><DateUtc dt:dt=""string"">2017-10-10T17:16:16Z</DateUtc></StartTime><FrequencyChanges><FrequencyChange><Frequency dt:dt=""r8"">2923154</Frequency><Timestamp dt:dt=""r8"">320799132749</Timestamp><Current dt:dt=""r8"">0</Current><DateUtc dt:dt=""string"">2017-10-10T17:16:16Z</DateUtc></FrequencyChange></FrequencyChanges></Clock>\n",Individual-004-1,59.955,?,1.0.0.478,1,-1322845622,Professional,2.0.10.353,2.0.10.353,10/10/2017,10/10/2017 17:16,18:16:16,2.0.10.248,1,1,1,1,M1,List1,1,1,1,1,NULL,NULL,NULL,Prac1,BlockList1,3,NULL,NULL,NULL,e,NULL,NULL,NULL,13,2,3,NULL,NULL,NULL,TrialProc47,PracTrials1,blue,e,1,e,340
Individual,4,1,"<?xml version=""1.0""?>\n<Clock xmlns:dt=""urn:schemas-microsoft-com:datatypes""><Description dt:dt=""string"">E-Prime Primary Realtime Clock</Description><StartTime><Timestamp dt:dt=""int"">0</Timestamp><DateUtc dt:dt=""string"">2017-10-10T17:16:16Z</DateUtc></StartTime><FrequencyChanges><FrequencyChange><Frequency dt:dt=""r8"">2923154</Frequency><Timestamp dt:dt=""r8"">320799132749</Timestamp><Current dt:dt=""r8"">0</Current><DateUtc dt:dt=""string"">2017-10-10T17:16:16Z</DateUtc></FrequencyChange></FrequencyChanges></Clock>\n",Individual-004-1,59.955,?,1.0.0.478,1,-1322845622,Professional,2.0.10.353,2.0.10.353,10/10/2017,10/10/2017 17:16,18:16:16,2.0.10.248,1,1,1,1,M1,List1,1,1,1,1,NULL,NULL,NULL,Prac1,BlockList1,4,NULL,NULL,NULL,e,NULL,NULL,NULL,10,2,4,NULL,NULL,NULL,TrialProc47,PracTrials1,blue,w,1,e,557
Individual,4,1,"<?xml version=""1.0""?>\n<Clock xmlns:dt=""urn:schemas-microsoft-com:datatypes""><Description dt:dt=""string"">E-Prime Primary Realtime Clock</Description><StartTime><Timestamp dt:dt=""int"">0</Timestamp><DateUtc dt:dt=""string"">2017-10-10T17:16:16Z</DateUtc></StartTime><FrequencyChanges><FrequencyChange><Frequency dt:dt=""r8"">2923154</Frequency><Timestamp dt:dt=""r8"">320799132749</Timestamp><Current dt:dt=""r8"">0</Current><DateUtc dt:dt=""string"">2017-10-10T17:16:16Z</DateUtc></FrequencyChange></FrequencyChanges></Clock>\n",Individual-004-1,59.955,?,1.0.0.478,1,-1322845622,Professional,2.0.10.353,2.0.10.353,10/10/2017,10/10/2017 17:16,18:16:16,2.0.10.248,1,1,1,1,M1,List1,1,1,1,1,NULL,NULL,NULL,Prac1,BlockList1,5,NULL,NULL,NULL,e,NULL,NULL,NULL,14,2,5,NULL,NULL,NULL,TrialProc47,PracTrials1,blue,w,1,e,472
Individual,4,1,"<?xml version=""1.0""?>\n<Clock xmlns:dt=""urn:schemas-microsoft-com:datatypes""><Description dt:dt=""string"">E-Prime Primary Realtime Clock</Description><StartTime><Timestamp dt:dt=""int"">0</Timestamp><DateUtc dt:dt=""string"">2017-10-10T17:16:16Z</DateUtc></StartTime><FrequencyChanges><FrequencyChange><Frequency dt:dt=""r8"">2923154</Frequency><Timestamp dt:dt=""r8"">320799132749</Timestamp><Current dt:dt=""r8"">0</Current><DateUtc dt:dt=""string"">2017-10-10T17:16:16Z</DateUtc></FrequencyChange></FrequencyChanges></Clock>\n",Individual-004-1,59.955,?,1.0.0.478,1,-1322845622,Professional,2.0.10.353,2.0.10.353,10/10/2017,10/10/2017 17:16,18:16:16,2.0.10.248,1,1,1,1,M1,List1,1,1,1,1,NULL,NULL,NULL,Prac1,BlockList1,6,NULL,NULL,NULL,e,NULL,NULL,NULL,2,2,6,NULL,NULL,NULL,TrialProc47,PracTrials1,blue,w,1,e,415
Individual,4,1,"<?xml version=""1.0""?>\n<Clock xmlns:dt=""urn:schemas-microsoft-com:datatypes""><Description dt:dt=""string"">E-Prime Primary Realtime Clock</Description><StartTime><Timestamp dt:dt=""int"">0</Timestamp><DateUtc dt:dt=""string"">2017-10-10T17:16:16Z</DateUtc></StartTime><FrequencyChanges><FrequencyChange><Frequency dt:dt=""r8"">2923154</Frequency><Timestamp dt:dt=""r8"">320799132749</Timestamp><Current dt:dt=""r8"">0</Current><DateUtc dt:dt=""string"">2017-10-10T17:16:16Z</DateUtc></FrequencyChange></FrequencyChanges></Clock>\n",Individual-004-1,59.955,?,1.0.0.478,1,-1322845622,Professional,2.0.10.353,2.0.10.353,10/10/2017,10/10/2017 17:16,18:16:16,2.0.10.248,1,1,1,1,M1,List1,1,1,1,1,NULL,NULL,NULL,Prac1,BlockList1,7,NULL,NULL,NULL,e,NULL,NULL,NULL,1,2,7,NULL,NULL,NULL,TrialProc47,PracTrials1,blue,e,1,e,445
Individual,4,1,"<?xml version=""1.0""?>\n<Clock xmlns:dt=""urn:schemas-microsoft-com:datatypes""><Description dt:dt=""string"">E-Prime Primary Realtime Clock</Description><StartTime><Timestamp dt:dt=""int"">0</Timestamp><DateUtc dt:dt=""string"">2017-10-10T17:16:16Z</DateUtc></StartTime><FrequencyChanges><FrequencyChange><Frequency dt:dt=""r8"">2923154</Frequency><Timestamp dt:dt=""r8"">320799132749</Timestamp><Current dt:dt=""r8"">0</Current><DateUtc dt:dt=""string"">2017-10-10T17:16:16Z</DateUtc></FrequencyChange></FrequencyChanges></Clock>\n",Individual-004-1,59.955,?,1.0.0.478,1,-1322845622,Professional,2.0.10.353,2.0.10.353,10/10/2017,10/10/2017 17:16,18:16:16,2.0.10.248,1,1,1,1,M1,List1,1,1,1,1,NULL,NULL,NULL,Prac1,BlockList1,8,NULL,NULL,NULL,w,NULL,NULL,NULL,12,2,8,NULL,NULL,NULL,TrialProc47,PracTrials1,red,e,1,w,820
Individual,4,1,"<?xml version=""1.0""?>\n<Clock xmlns:dt=""urn:schemas-microsoft-com:datatypes""><Description dt:dt=""string"">E-Prime Primary Realtime Clock</Description><StartTime><Timestamp dt:dt=""int"">0</Timestamp><DateUtc dt:dt=""string"">2017-10-10T17:16:16Z</DateUtc></StartTime><FrequencyChanges><FrequencyChange><Frequency dt:dt=""r8"">2923154</Frequency><Timestamp dt:dt=""r8"">320799132749</Timestamp><Current dt:dt=""r8"">0</Current><DateUtc dt:dt=""string"">2017-10-10T17:16:16Z</DateUtc></FrequencyChange></FrequencyChanges></Clock>\n",Individual-004-1,59.955,?,1.0.0.478,1,-1322845622,Professional,2.0.10.353,2.0.10.353,10/10/2017,10/10/2017 17:16,18:16:16,2.0.10.248,1,1,1,1,M1,List1,1,1,1,1,NULL,NULL,NULL,Prac1,BlockList1,9,NULL,NULL,NULL,w,NULL,NULL,NULL,11,2,9,NULL,NULL,NULL,TrialProc47,PracTrials1,red,w,1,w,429
Individual,4,1,"<?xml version=""1.0""?>\n<Clock xmlns:dt=""urn:schemas-microsoft-com:datatypes""><Description dt:dt=""string"">E-Prime Primary Realtime Clock</Description><StartTime><Timestamp dt:dt=""int"">0</Timestamp><DateUtc dt:dt=""string"">2017-10-10T17:16:16Z</DateUtc></StartTime><FrequencyChanges><FrequencyChange><Frequency dt:dt=""r8"">2923154</Frequency><Timestamp dt:dt=""r8"">320799132749</Timestamp><Current dt:dt=""r8"">0</Current><DateUtc dt:dt=""string"">2017-10-10T17:16:16Z</DateUtc></FrequencyChange></FrequencyChanges></Clock>\n",Individual-004-1,59.955,?,1.0.0.478,1,-1322845622,Professional,2.0.10.353,2.0.10.353,10/10/2017,10/10/2017 17:16,18:16:16,2.0.10.248,1,1,1,1,M1,List1,1,1,1,1,NULL,NULL,NULL,Prac1,BlockList1,10,NULL,NULL,NULL,e,NULL,NULL,NULL,9,2,10,NULL,NULL,NULL,TrialProc47,PracTrials1,blue,e,1,e,388
Individual,4,1,"<?xml version=""1.0""?>\n<Clock xmlns:dt=""urn:schemas-microsoft-com:datatypes""><Description dt:dt=""string"">E-Prime Primary Realtime Clock</Description><StartTime><Timestamp dt:dt=""int"">0</Timestamp><DateUtc dt:dt=""string"">2017-10-10T17:16:16Z</DateUtc></StartTime><FrequencyChanges><FrequencyChange><Frequency dt:dt=""r8"">2923154</Frequency><Timestamp dt:dt=""r8"">320799132749</Timestamp><Current dt:dt=""r8"">0</Current><DateUtc dt:dt=""string"">2017-10-10T17:16:16Z</DateUtc></FrequencyChange></FrequencyChanges></Clock>\n",Individual-004-1,59.955,?,1.0.0.478,1,-1322845622,Professional,2.0.10.353,2.0.10.353,10/10/2017,10/10/2017 17:16,18:16:16,2.0.10.248,1,1,1,1,M1,List1,1,1,1,1,NULL,NULL,NULL,Prac1,BlockList1,11,NULL,NULL,NULL,w,NULL,NULL,NULL,15,2,11,NULL,NULL,NULL,TrialProc47,PracTrials1,red,w,1,w,314
Individual,4,1,"<?xml version=""1.0""?>\n<Clock xmlns:dt=""urn:schemas-microsoft-com:datatypes""><Description dt:dt=""string"">E-Prime Primary Realtime Clock</Description><StartTime><Timestamp dt:dt=""int"">0</Timestamp><DateUtc dt:dt=""string"">2017-10-10T17:16:16Z</DateUtc></StartTime><FrequencyChanges><FrequencyChange><Frequency dt:dt=""r8"">2923154</Frequency><Timestamp dt:dt=""r8"">320799132749</Timestamp><Current dt:dt=""r8"">0</Current><DateUtc dt:dt=""string"">2017-10-10T17:16:16Z</DateUtc></FrequencyChange></FrequencyChanges></Clock>\n",Individual-004-1,59.955,?,1.0.0.478,1,-1322845622,Professional,2.0.10.353,2.0.10.353,10/10/2017,10/10/2017 17:16,18:16:16,2.0.10.248,1,1,1,1,M1,List1,1,1,1,1,NULL,NULL,NULL,Prac1,BlockList1,12,NULL,NULL,NULL,w,NULL,NULL,NULL,3,2,12,NULL,NULL,NULL,TrialProc47,PracTrials1,red,w,1,w,393
Individual,4,1,"<?xml version=""1.0""?>\n<Clock xmlns:dt=""urn:schemas-microsoft-com:datatypes""><Description dt:dt=""string"">E-Prime Primary Realtime Clock</Description><StartTime><Timestamp dt:dt=""int"">0</Timestamp><DateUtc dt:dt=""string"">2017-10-10T17:16:16Z</DateUtc></StartTime><FrequencyChanges><FrequencyChange><Frequency dt:dt=""r8"">2923154</Frequency><Timestamp dt:dt=""r8"">320799132749</Timestamp><Current dt:dt=""r8"">0</Current><DateUtc dt:dt=""string"">2017-10-10T17:16:16Z</DateUtc></FrequencyChange></FrequencyChanges></Clock>\n",Individual-004-1,59.955,?,1.0.0.478,1,-1322845622,Professional,2.0.10.353,2.0.10.353,10/10/2017,10/10/2017 17:16,18:16:16,2.0.10.248,1,1,1,1,M1,List1,1,1,1,1,NULL,NULL,NULL,Prac1,BlockList1,13,NULL,NULL,NULL,w,NULL,NULL,NULL,4,2,13,NULL,NULL,NULL,TrialProc47,PracTrials1,red,e,1,w,577
Individual,4,1,"<?xml version=""1.0""?>\n<Clock xmlns:dt=""urn:schemas-microsoft-com:datatypes""><Description dt:dt=""string"">E-Prime Primary Realtime Clock</Description><StartTime><Timestamp dt:dt=""int"">0</Timestamp><DateUtc dt:dt=""string"">2017-10-10T17:16:16Z</DateUtc></StartTime><FrequencyChanges><FrequencyChange><Frequency dt:dt=""r8"">2923154</Frequency><Timestamp dt:dt=""r8"">320799132749</Timestamp><Current dt:dt=""r8"">0</Current><DateUtc dt:dt=""string"">2017-10-10T17:16:16Z</DateUtc></FrequencyChange></FrequencyChanges></Clock>\n",Individual-004-1,59.955,?,1.0.0.478,1,-1322845622,Professional,2.0.10.353,2.0.10.353,10/10/2017,10/10/2017 17:16,18:16:16,2.0.10.248,1,1,1,1,M1,List1,1,1,1,1,NULL,NULL,NULL,Prac1,BlockList1,14,NULL,NULL,NULL,w,NULL,NULL,NULL,8,2,14,NULL,NULL,NULL,TrialProc47,PracTrials1,red,e,1,w,410
Individual,4,1,"<?xml version=""1.0""?>\n<Clock xmlns:dt=""urn:schemas-microsoft-com:datatypes""><Description dt:dt=""string"">E-Prime Primary Realtime Clock</Description><StartTime><Timestamp dt:dt=""int"">0</Timestamp><DateUtc dt:dt=""string"">2017-10-10T17:16:16Z</DateUtc></StartTime><FrequencyChanges><FrequencyChange><Frequency dt:dt=""r8"">2923154</Frequency><Timestamp dt:dt=""r8"">320799132749</Timestamp><Current dt:dt=""r8"">0</Current><DateUtc dt:dt=""string"">2017-10-10T17:16:16Z</DateUtc></FrequencyChange></FrequencyChanges></Clock>\n",Individual-004-1,59.955,?,1.0.0.478,1,-1322845622,Professional,2.0.10.353,2.0.10.353,10/10/2017,10/10/2017 17:16,18:16:16,2.0.10.248,1,1,1,1,M1,List1,1,1,1,1,NULL,NULL,NULL,Prac1,BlockList1,15,NULL,NULL,NULL,w,NULL,NULL,NULL,7,2,15,NULL,NULL,NULL,TrialProc47,PracTrials1,red,w,1,w,308
Individual,4,1,"<?xml version=""1.0""?>\n<Clock xmlns:dt=""urn:schemas-microsoft-com:datatypes""><Description dt:dt=""string"">E-Prime Primary Realtime Clock</Description><StartTime><Timestamp dt:dt=""int"">0</Timestamp><DateUtc dt:dt=""string"">2017-10-10T17:16:16Z</DateUtc></StartTime><FrequencyChanges><FrequencyChange><Frequency dt:dt=""r8"">2923154</Frequency><Timestamp dt:dt=""r8"">320799132749</Timestamp><Current dt:dt=""r8"">0</Current><DateUtc dt:dt=""string"">2017-10-10T17:16:16Z</DateUtc></FrequencyChange></FrequencyChanges></Clock>\n",Individual-004-1,59.955,?,1.0.0.478,1,-1322845622,Professional,2.0.10.353,2.0.10.353,10/10/2017,10/10/2017 17:16,18:16:16,2.0.10.248,1,1,1,1,M1,List1,1,1,1,1,NULL,NULL,NULL,Prac1,BlockList1,16,NULL,NULL,NULL,e,NULL,NULL,NULL,6,2,16,NULL,NULL,NULL,TrialProc47,PracTrials1,blue,w,0,w,337
Individual,4,1,"<?xml version=""1.0""?>\n<Clock xmlns:dt=""urn:schemas-microsoft-com:datatypes""><Description dt:dt=""string"">E-Prime Primary Realtime Clock</Description><StartTime><Timestamp dt:dt=""int"">0</Timestamp><DateUtc dt:dt=""string"">2017-10-10T17:16:16Z</DateUtc></StartTime><FrequencyChanges><FrequencyChange><Frequency dt:dt=""r8"">2923154</Frequency><Timestamp dt:dt=""r8"">320799132749</Timestamp><Current dt:dt=""r8"">0</Current><DateUtc dt:dt=""string"">2017-10-10T17:16:16Z</DateUtc></FrequencyChange></FrequencyChanges></Clock>\n",Individual-004-1,59.955,?,1.0.0.478,1,-1322845622,Professional,2.0.10.353,2.0.10.353,10/10/2017,10/10/2017 17:16,18:16:16,2.0.10.248,1,1,1,1,M1,List1,2,2,1,2,NULL,NULL,NULL,InstruProc,BlockList1,NULL,NULL,NULL,NULL,NULL,NULL,NULL,NULL,NULL,NULL,NULL,NULL,NULL,NULL,NULL,NULL,NULL,NULL,NULL,NULL,NULL
Individual,4,1,"<?xml version=""1.0""?>\n<Clock xmlns:dt=""urn:schemas-microsoft-com:datatypes""><Description dt:dt=""string"">E-Prime Primary Realtime Clock</Description><StartTime><Timestamp dt:dt=""int"">0</Timestamp><DateUtc dt:dt=""string"">2017-10-10T17:16:16Z</DateUtc></StartTime><FrequencyChanges><FrequencyChange><Frequency dt:dt=""r8"">2923154</Frequency><Timestamp dt:dt=""r8"">320799132749</Timestamp><Current dt:dt=""r8"">0</Current><DateUtc dt:dt=""string"">2017-10-10T17:16:16Z</DateUtc></FrequencyChange></FrequencyChanges></Clock>\n",Individual-004-1,59.955,?,1.0.0.478,1,-1322845622,Professional,2.0.10.353,2.0.10.353,10/10/2017,10/10/2017 17:16,18:16:16,2.0.10.248,1,1,1,1,M1,List1,3,3,1,3,NULL,NULL,NULL,b1,BlockList1,1,84,2,1,w,NULL,NULL,NULL,NULL,NULL,NULL,NULL,NULL,NULL,TrialProc4,b1trails1,red,e,1,w,658
Individual,4,1,"<?xml version=""1.0""?>\n<Clock xmlns:dt=""urn:schemas-microsoft-com:datatypes""><Description dt:dt=""string"">E-Prime Primary Realtime Clock</Description><StartTime><Timestamp dt:dt=""int"">0</Timestamp><DateUtc dt:dt=""string"">2017-10-10T17:16:16Z</DateUtc></StartTime><FrequencyChanges><FrequencyChange><Frequency dt:dt=""r8"">2923154</Frequency><Timestamp dt:dt=""r8"">320799132749</Timestamp><Current dt:dt=""r8"">0</Current><DateUtc dt:dt=""string"">2017-10-10T17:16:16Z</DateUtc></FrequencyChange></FrequencyChanges></Clock>\n",Individual-004-1,59.955,?,1.0.0.478,1,-1322845622,Professional,2.0.10.353,2.0.10.353,10/10/2017,10/10/2017 17:16,18:16:16,2.0.10.248,1,1,1,1,M1,List1,3,3,1,3,NULL,NULL,NULL,b1,BlockList1,2,95,2,2,w,NULL,NULL,NULL,NULL,NULL,NULL,NULL,NULL,NULL,TrialProc4,b1trails1,red,w,1,w,379
Individual,4,1,"<?xml version=""1.0""?>\n<Clock xmlns:dt=""urn:schemas-microsoft-com:datatypes""><Description dt:dt=""string"">E-Prime Primary Realtime Clock</Description><StartTime><Timestamp dt:dt=""int"">0</Timestamp><DateUtc dt:dt=""string"">2017-10-10T17:16:16Z</DateUtc></StartTime><FrequencyChanges><FrequencyChange><Frequency dt:dt=""r8"">2923154</Frequency><Timestamp dt:dt=""r8"">320799132749</Timestamp><Current dt:dt=""r8"">0</Current><DateUtc dt:dt=""string"">2017-10-10T17:16:16Z</DateUtc></FrequencyChange></FrequencyChanges></Clock>\n",Individual-004-1,59.955,?,1.0.0.478,1,-1322845622,Professional,2.0.10.353,2.0.10.353,10/10/2017,10/10/2017 17:16,18:16:16,2.0.10.248,1,1,1,1,M1,List1,3,3,1,3,NULL,NULL,NULL,b1,BlockList1,3,79,2,3,w,NULL,NULL,NULL,NULL,NULL,NULL,NULL,NULL,NULL,TrialProc4,b1trails1,red,w,1,w,315
Individual,4,1,"<?xml version=""1.0""?>\n<Clock xmlns:dt=""urn:schemas-microsoft-com:datatypes""><Description dt:dt=""string"">E-Prime Primary Realtime Clock</Description><StartTime><Timestamp dt:dt=""int"">0</Timestamp><DateUtc dt:dt=""string"">2017-10-10T17:16:16Z</DateUtc></StartTime><FrequencyChanges><FrequencyChange><Frequency dt:dt=""r8"">2923154</Frequency><Timestamp dt:dt=""r8"">320799132749</Timestamp><Current dt:dt=""r8"">0</Current><DateUtc dt:dt=""string"">2017-10-10T17:16:16Z</DateUtc></FrequencyChange></FrequencyChanges></Clock>\n",Individual-004-1,59.955,?,1.0.0.478,1,-1322845622,Professional,2.0.10.353,2.0.10.353,10/10/2017,10/10/2017 17:16,18:16:16,2.0.10.248,1,1,1,1,M1,List1,3,3,1,3,NULL,NULL,NULL,b1,BlockList1,4,76,2,4,w,NULL,NULL,NULL,NULL,NULL,NULL,NULL,NULL,NULL,TrialProc4,b1trails1,red,e,1,w,512
Individual,4,1,"<?xml version=""1.0""?>\n<Clock xmlns:dt=""urn:schemas-microsoft-com:datatypes""><Description dt:dt=""string"">E-Prime Primary Realtime Clock</Description><StartTime><Timestamp dt:dt=""int"">0</Timestamp><DateUtc dt:dt=""string"">2017-10-10T17:16:16Z</DateUtc></StartTime><FrequencyChanges><FrequencyChange><Frequency dt:dt=""r8"">2923154</Frequency><Timestamp dt:dt=""r8"">320799132749</Timestamp><Current dt:dt=""r8"">0</Current><DateUtc dt:dt=""string"">2017-10-10T17:16:16Z</DateUtc></FrequencyChange></FrequencyChanges></Clock>\n",Individual-004-1,59.955,?,1.0.0.478,1,-1322845622,Professional,2.0.10.353,2.0.10.353,10/10/2017,10/10/2017 17:16,18:16:16,2.0.10.248,1,1,1,1,M1,List1,3,3,1,3,NULL,NULL,NULL,b1,BlockList1,5,43,2,5,w,NULL,NULL,NULL,NULL,NULL,NULL,NULL,NULL,NULL,TrialProc4,b1trails1,red,w,1,w,450
Individual,4,1,"<?xml version=""1.0""?>\n<Clock xmlns:dt=""urn:schemas-microsoft-com:datatypes""><Description dt:dt=""string"">E-Prime Primary Realtime Clock</Description><StartTime><Timestamp dt:dt=""int"">0</Timestamp><DateUtc dt:dt=""string"">2017-10-10T17:16:16Z</DateUtc></StartTime><FrequencyChanges><FrequencyChange><Frequency dt:dt=""r8"">2923154</Frequency><Timestamp dt:dt=""r8"">320799132749</Timestamp><Current dt:dt=""r8"">0</Current><DateUtc dt:dt=""string"">2017-10-10T17:16:16Z</DateUtc></FrequencyChange></FrequencyChanges></Clock>\n",Individual-004-1,59.955,?,1.0.0.478,1,-1322845622,Professional,2.0.10.353,2.0.10.353,10/10/2017,10/10/2017 17:16,18:16:16,2.0.10.248,1,1,1,1,M1,List1,3,3,1,3,NULL,NULL,NULL,b1,BlockList1,6,36,2,6,w,NULL,NULL,NULL,NULL,NULL,NULL,NULL,NULL,NULL,TrialProc4,b1trails1,red,e,1,w,396
Individual,4,1,"<?xml version=""1.0""?>\n<Clock xmlns:dt=""urn:schemas-microsoft-com:datatypes""><Description dt:dt=""string"">E-Prime Primary Realtime Clock</Description><StartTime><Timestamp dt:dt=""int"">0</Timestamp><DateUtc dt:dt=""string"">2017-10-10T17:16:16Z</DateUtc></StartTime><FrequencyChanges><FrequencyChange><Frequency dt:dt=""r8"">2923154</Frequency><Timestamp dt:dt=""r8"">320799132749</Timestamp><Current dt:dt=""r8"">0</Current><DateUtc dt:dt=""string"">2017-10-10T17:16:16Z</DateUtc></FrequencyChange></FrequencyChanges></Clock>\n",Individual-004-1,59.955,?,1.0.0.478,1,-1322845622,Professional,2.0.10.353,2.0.10.353,10/10/2017,10/10/2017 17:16,18:16:16,2.0.10.248,1,1,1,1,M1,List1,3,3,1,3,NULL,NULL,NULL,b1,BlockList1,7,71,2,7,w,NULL,NULL,NULL,NULL,NULL,NULL,NULL,NULL,NULL,TrialProc4,b1trails1,red,w,1,w,371
Individual,4,1,"<?xml version=""1.0""?>\n<Clock xmlns:dt=""urn:schemas-microsoft-com:datatypes""><Description dt:dt=""string"">E-Prime Primary Realtime Clock</Description><StartTime><Timestamp dt:dt=""int"">0</Timestamp><DateUtc dt:dt=""string"">2017-10-10T17:16:16Z</DateUtc></StartTime><FrequencyChanges><FrequencyChange><Frequency dt:dt=""r8"">2923154</Frequency><Timestamp dt:dt=""r8"">320799132749</Timestamp><Current dt:dt=""r8"">0</Current><DateUtc dt:dt=""string"">2017-10-10T17:16:16Z</DateUtc></FrequencyChange></FrequencyChanges></Clock>\n",Individual-004-1,59.955,?,1.0.0.478,1,-1322845622,Professional,2.0.10.353,2.0.10.353,10/10/2017,10/10/2017 17:16,18:16:16,2.0.10.248,1,1,1,1,M1,List1,3,3,1,3,NULL,NULL,NULL,b1,BlockList1,8,30,2,8,e,NULL,NULL,NULL,NULL,NULL,NULL,NULL,NULL,NULL,TrialProc4,b1trails1,blue,w,1,e,472
Individual,4,1,"<?xml version=""1.0""?>\n<Clock xmlns:dt=""urn:schemas-microsoft-com:datatypes""><Description dt:dt=""string"">E-Prime Primary Realtime Clock</Description><StartTime><Timestamp dt:dt=""int"">0</Timestamp><DateUtc dt:dt=""string"">2017-10-10T17:16:16Z</DateUtc></StartTime><FrequencyChanges><FrequencyChange><Frequency dt:dt=""r8"">2923154</Frequency><Timestamp dt:dt=""r8"">320799132749</Timestamp><Current dt:dt=""r8"">0</Current><DateUtc dt:dt=""string"">2017-10-10T17:16:16Z</DateUtc></FrequencyChange></FrequencyChanges></Clock>\n",Individual-004-1,59.955,?,1.0.0.478,1,-1322845622,Professional,2.0.10.353,2.0.10.353,10/10/2017,10/10/2017 17:16,18:16:16,2.0.10.248,1,1,1,1,M1,List1,3,3,1,3,NULL,NULL,NULL,b1,BlockList1,9,25,2,9,e,NULL,NULL,NULL,NULL,NULL,NULL,NULL,NULL,NULL,TrialProc4,b1trails1,blue,e,1,e,376
Individual,4,1,"<?xml version=""1.0""?>\n<Clock xmlns:dt=""urn:schemas-microsoft-com:datatypes""><Description dt:dt=""string"">E-Prime Primary Realtime Clock</Description><StartTime><Timestamp dt:dt=""int"">0</Timestamp><DateUtc dt:dt=""string"">2017-10-10T17:16:16Z</DateUtc></StartTime><FrequencyChanges><FrequencyChange><Frequency dt:dt=""r8"">2923154</Frequency><Timestamp dt:dt=""r8"">320799132749</Timestamp><Current dt:dt=""r8"">0</Current><DateUtc dt:dt=""string"">2017-10-10T17:16:16Z</DateUtc></FrequencyChange></FrequencyChanges></Clock>\n",Individual-004-1,59.955,?,1.0.0.478,1,-1322845622,Professional,2.0.10.353,2.0.10.353,10/10/2017,10/10/2017 17:16,18:16:16,2.0.10.248,1,1,1,1,M1,List1,3,3,1,3,NULL,NULL,NULL,b1,BlockList1,10,75,2,10,w,NULL,NULL,NULL,NULL,NULL,NULL,NULL,NULL,NULL,TrialProc4,b1trails1,red,w,1,w,482
Individual,4,1,"<?xml version=""1.0""?>\n<Clock xmlns:dt=""urn:schemas-microsoft-com:datatypes""><Description dt:dt=""string"">E-Prime Primary Realtime Clock</Description><StartTime><Timestamp dt:dt=""int"">0</Timestamp><DateUtc dt:dt=""string"">2017-10-10T17:16:16Z</DateUtc></StartTime><FrequencyChanges><FrequencyChange><Frequency dt:dt=""r8"">2923154</Frequency><Timestamp dt:dt=""r8"">320799132749</Timestamp><Current dt:dt=""r8"">0</Current><DateUtc dt:dt=""string"">2017-10-10T17:16:16Z</DateUtc></FrequencyChange></FrequencyChanges></Clock>\n",Individual-004-1,59.955,?,1.0.0.478,1,-1322845622,Professional,2.0.10.353,2.0.10.353,10/10/2017,10/10/2017 17:16,18:16:16,2.0.10.248,1,1,1,1,M1,List1,3,3,1,3,NULL,NULL,NULL,b1,BlockList1,11,70,2,11,e,NULL,NULL,NULL,NULL,NULL,NULL,NULL,NULL,NULL,TrialProc4,b1trails1,blue,w,0,w,352
Individual,4,1,"<?xml version=""1.0""?>\n<Clock xmlns:dt=""urn:schemas-microsoft-com:datatypes""><Description dt:dt=""string"">E-Prime Primary Realtime Clock</Description><StartTime><Timestamp dt:dt=""int"">0</Timestamp><DateUtc dt:dt=""string"">2017-10-10T17:16:16Z</DateUtc></StartTime><FrequencyChanges><FrequencyChange><Frequency dt:dt=""r8"">2923154</Frequency><Timestamp dt:dt=""r8"">320799132749</Timestamp><Current dt:dt=""r8"">0</Current><DateUtc dt:dt=""string"">2017-10-10T17:16:16Z</DateUtc></FrequencyChange></FrequencyChanges></Clock>\n",Individual-004-1,59.955,?,1.0.0.478,1,-1322845622,Professional,2.0.10.353,2.0.10.353,10/10/2017,10/10/2017 17:16,18:16:16,2.0.10.248,1,1,1,1,M1,List1,3,3,1,3,NULL,NULL,NULL,b1,BlockList1,12,26,2,12,e,NULL,NULL,NULL,NULL,NULL,NULL,NULL,NULL,NULL,TrialProc4,b1trails1,blue,w,1,e,551
Individual,4,1,"<?xml version=""1.0""?>\n<Clock xmlns:dt=""urn:schemas-microsoft-com:datatypes""><Description dt:dt=""string"">E-Prime Primary Realtime Clock</Description><StartTime><Timestamp dt:dt=""int"">0</Timestamp><DateUtc dt:dt=""string"">2017-10-10T17:16:16Z</DateUtc></StartTime><FrequencyChanges><FrequencyChange><Frequency dt:dt=""r8"">2923154</Frequency><Timestamp dt:dt=""r8"">320799132749</Timestamp><Current dt:dt=""r8"">0</Current><DateUtc dt:dt=""string"">2017-10-10T17:16:16Z</DateUtc></FrequencyChange></FrequencyChanges></Clock>\n",Individual-004-1,59.955,?,1.0.0.478,1,-1322845622,Professional,2.0.10.353,2.0.10.353,10/10/2017,10/10/2017 17:16,18:16:16,2.0.10.248,1,1,1,1,M1,List1,3,3,1,3,NULL,NULL,NULL,b1,BlockList1,13,80,2,13,w,NULL,NULL,NULL,NULL,NULL,NULL,NULL,NULL,NULL,TrialProc4,b1trails1,red,e,1,w,399
Individual,4,1,"<?xml version=""1.0""?>\n<Clock xmlns:dt=""urn:schemas-microsoft-com:datatypes""><Description dt:dt=""string"">E-Prime Primary Realtime Clock</Description><StartTime><Timestamp dt:dt=""int"">0</Timestamp><DateUtc dt:dt=""string"">2017-10-10T17:16:16Z</DateUtc></StartTime><FrequencyChanges><FrequencyChange><Frequency dt:dt=""r8"">2923154</Frequency><Timestamp dt:dt=""r8"">320799132749</Timestamp><Current dt:dt=""r8"">0</Current><DateUtc dt:dt=""string"">2017-10-10T17:16:16Z</DateUtc></FrequencyChange></FrequencyChanges></Clock>\n",Individual-004-1,59.955,?,1.0.0.478,1,-1322845622,Professional,2.0.10.353,2.0.10.353,10/10/2017,10/10/2017 17:16,18:16:16,2.0.10.248,1,1,1,1,M1,List1,3,3,1,3,NULL,NULL,NULL,b1,BlockList1,14,61,2,14,e,NULL,NULL,NULL,NULL,NULL,NULL,NULL,NULL,NULL,TrialProc4,b1trails1,blue,e,1,e,346
Individual,4,1,"<?xml version=""1.0""?>\n<Clock xmlns:dt=""urn:schemas-microsoft-com:datatypes""><Description dt:dt=""string"">E-Prime Primary Realtime Clock</Description><StartTime><Timestamp dt:dt=""int"">0</Timestamp><DateUtc dt:dt=""string"">2017-10-10T17:16:16Z</DateUtc></StartTime><FrequencyChanges><FrequencyChange><Frequency dt:dt=""r8"">2923154</Frequency><Timestamp dt:dt=""r8"">320799132749</Timestamp><Current dt:dt=""r8"">0</Current><DateUtc dt:dt=""string"">2017-10-10T17:16:16Z</DateUtc></FrequencyChange></FrequencyChanges></Clock>\n",Individual-004-1,59.955,?,1.0.0.478,1,-1322845622,Professional,2.0.10.353,2.0.10.353,10/10/2017,10/10/2017 17:16,18:16:16,2.0.10.248,1,1,1,1,M1,List1,3,3,1,3,NULL,NULL,NULL,b1,BlockList1,15,55,2,15,w,NULL,NULL,NULL,NULL,NULL,NULL,NULL,NULL,NULL,TrialProc4,b1trails1,red,w,1,w,308
Individual,4,1,"<?xml version=""1.0""?>\n<Clock xmlns:dt=""urn:schemas-microsoft-com:datatypes""><Description dt:dt=""string"">E-Prime Primary Realtime Clock</Description><StartTime><Timestamp dt:dt=""int"">0</Timestamp><DateUtc dt:dt=""string"">2017-10-10T17:16:16Z</DateUtc></StartTime><FrequencyChanges><FrequencyChange><Frequency dt:dt=""r8"">2923154</Frequency><Timestamp dt:dt=""r8"">320799132749</Timestamp><Current dt:dt=""r8"">0</Current><DateUtc dt:dt=""string"">2017-10-10T17:16:16Z</DateUtc></FrequencyChange></FrequencyChanges></Clock>\n",Individual-004-1,59.955,?,1.0.0.478,1,-1322845622,Professional,2.0.10.353,2.0.10.353,10/10/2017,10/10/2017 17:16,18:16:16,2.0.10.248,1,1,1,1,M1,List1,3,3,1,3,NULL,NULL,NULL,b1,BlockList1,16,94,2,16,e,NULL,NULL,NULL,NULL,NULL,NULL,NULL,NULL,NULL,TrialProc4,b1trails1,blue,w,0,w,332
Individual,4,1,"<?xml version=""1.0""?>\n<Clock xmlns:dt=""urn:schemas-microsoft-com:datatypes""><Description dt:dt=""string"">E-Prime Primary Realtime Clock</Description><StartTime><Timestamp dt:dt=""int"">0</Timestamp><DateUtc dt:dt=""string"">2017-10-10T17:16:16Z</DateUtc></StartTime><FrequencyChanges><FrequencyChange><Frequency dt:dt=""r8"">2923154</Frequency><Timestamp dt:dt=""r8"">320799132749</Timestamp><Current dt:dt=""r8"">0</Current><DateUtc dt:dt=""string"">2017-10-10T17:16:16Z</DateUtc></FrequencyChange></FrequencyChanges></Clock>\n",Individual-004-1,59.955,?,1.0.0.478,1,-1322845622,Professional,2.0.10.353,2.0.10.353,10/10/2017,10/10/2017 17:16,18:16:16,2.0.10.248,1,1,1,1,M1,List1,3,3,1,3,NULL,NULL,NULL,b1,BlockList1,17,90,2,17,e,NULL,NULL,NULL,NULL,NULL,NULL,NULL,NULL,NULL,TrialProc4,b1trails1,blue,w,0,w,350
Individual,4,1,"<?xml version=""1.0""?>\n<Clock xmlns:dt=""urn:schemas-microsoft-com:datatypes""><Description dt:dt=""string"">E-Prime Primary Realtime Clock</Description><StartTime><Timestamp dt:dt=""int"">0</Timestamp><DateUtc dt:dt=""string"">2017-10-10T17:16:16Z</DateUtc></StartTime><FrequencyChanges><FrequencyChange><Frequency dt:dt=""r8"">2923154</Frequency><Timestamp dt:dt=""r8"">320799132749</Timestamp><Current dt:dt=""r8"">0</Current><DateUtc dt:dt=""string"">2017-10-10T17:16:16Z</DateUtc></FrequencyChange></FrequencyChanges></Clock>\n",Individual-004-1,59.955,?,1.0.0.478,1,-1322845622,Professional,2.0.10.353,2.0.10.353,10/10/2017,10/10/2017 17:16,18:16:16,2.0.10.248,1,1,1,1,M1,List1,3,3,1,3,NULL,NULL,NULL,b1,BlockList1,18,89,2,18,e,NULL,NULL,NULL,NULL,NULL,NULL,NULL,NULL,NULL,TrialProc4,b1trails1,blue,e,1,e,582
Individual,4,1,"<?xml version=""1.0""?>\n<Clock xmlns:dt=""urn:schemas-microsoft-com:datatypes""><Description dt:dt=""string"">E-Prime Primary Realtime Clock</Description><StartTime><Timestamp dt:dt=""int"">0</Timestamp><DateUtc dt:dt=""string"">2017-10-10T17:16:16Z</DateUtc></StartTime><FrequencyChanges><FrequencyChange><Frequency dt:dt=""r8"">2923154</Frequency><Timestamp dt:dt=""r8"">320799132749</Timestamp><Current dt:dt=""r8"">0</Current><DateUtc dt:dt=""string"">2017-10-10T17:16:16Z</DateUtc></FrequencyChange></FrequencyChanges></Clock>\n",Individual-004-1,59.955,?,1.0.0.478,1,-1322845622,Professional,2.0.10.353,2.0.10.353,10/10/2017,10/10/2017 17:16,18:16:16,2.0.10.248,1,1,1,1,M1,List1,3,3,1,3,NULL,NULL,NULL,b1,BlockList1,19,13,2,19,e,NULL,NULL,NULL,NULL,NULL,NULL,NULL,NULL,NULL,TrialProc4,b1trails1,blue,e,1,e,374
Individual,4,1,"<?xml version=""1.0""?>\n<Clock xmlns:dt=""urn:schemas-microsoft-com:datatypes""><Description dt:dt=""string"">E-Prime Primary Realtime Clock</Description><StartTime><Timestamp dt:dt=""int"">0</Timestamp><DateUtc dt:dt=""string"">2017-10-10T17:16:16Z</DateUtc></StartTime><FrequencyChanges><FrequencyChange><Frequency dt:dt=""r8"">2923154</Frequency><Timestamp dt:dt=""r8"">320799132749</Timestamp><Current dt:dt=""r8"">0</Current><DateUtc dt:dt=""string"">2017-10-10T17:16:16Z</DateUtc></FrequencyChange></FrequencyChanges></Clock>\n",Individual-004-1,59.955,?,1.0.0.478,1,-1322845622,Professional,2.0.10.353,2.0.10.353,10/10/2017,10/10/2017 17:16,18:16:16,2.0.10.248,1,1,1,1,M1,List1,3,3,1,3,NULL,NULL,NULL,b1,BlockList1,20,32,2,20,w,NULL,NULL,NULL,NULL,NULL,NULL,NULL,NULL,NULL,TrialProc4,b1trails1,red,e,1,w,696
Individual,4,1,"<?xml version=""1.0""?>\n<Clock xmlns:dt=""urn:schemas-microsoft-com:datatypes""><Description dt:dt=""string"">E-Prime Primary Realtime Clock</Description><StartTime><Timestamp dt:dt=""int"">0</Timestamp><DateUtc dt:dt=""string"">2017-10-10T17:16:16Z</DateUtc></StartTime><FrequencyChanges><FrequencyChange><Frequency dt:dt=""r8"">2923154</Frequency><Timestamp dt:dt=""r8"">320799132749</Timestamp><Current dt:dt=""r8"">0</Current><DateUtc dt:dt=""string"">2017-10-10T17:16:16Z</DateUtc></FrequencyChange></FrequencyChanges></Clock>\n",Individual-004-1,59.955,?,1.0.0.478,1,-1322845622,Professional,2.0.10.353,2.0.10.353,10/10/2017,10/10/2017 17:16,18:16:16,2.0.10.248,1,1,1,1,M1,List1,3,3,1,3,NULL,NULL,NULL,b1,BlockList1,21,56,2,21,w,NULL,NULL,NULL,NULL,NULL,NULL,NULL,NULL,NULL,TrialProc4,b1trails1,red,e,1,w,475
Individual,4,1,"<?xml version=""1.0""?>\n<Clock xmlns:dt=""urn:schemas-microsoft-com:datatypes""><Description dt:dt=""string"">E-Prime Primary Realtime Clock</Description><StartTime><Timestamp dt:dt=""int"">0</Timestamp><DateUtc dt:dt=""string"">2017-10-10T17:16:16Z</DateUtc></StartTime><FrequencyChanges><FrequencyChange><Frequency dt:dt=""r8"">2923154</Frequency><Timestamp dt:dt=""r8"">320799132749</Timestamp><Current dt:dt=""r8"">0</Current><DateUtc dt:dt=""string"">2017-10-10T17:16:16Z</DateUtc></FrequencyChange></FrequencyChanges></Clock>\n",Individual-004-1,59.955,?,1.0.0.478,1,-1322845622,Professional,2.0.10.353,2.0.10.353,10/10/2017,10/10/2017 17:16,18:16:16,2.0.10.248,1,1,1,1,M1,List1,3,3,1,3,NULL,NULL,NULL,b1,BlockList1,22,64,2,22,w,NULL,NULL,NULL,NULL,NULL,NULL,NULL,NULL,NULL,TrialProc4,b1trails1,red,e,1,w,411
Individual,4,1,"<?xml version=""1.0""?>\n<Clock xmlns:dt=""urn:schemas-microsoft-com:datatypes""><Description dt:dt=""string"">E-Prime Primary Realtime Clock</Description><StartTime><Timestamp dt:dt=""int"">0</Timestamp><DateUtc dt:dt=""string"">2017-10-10T17:16:16Z</DateUtc></StartTime><FrequencyChanges><FrequencyChange><Frequency dt:dt=""r8"">2923154</Frequency><Timestamp dt:dt=""r8"">320799132749</Timestamp><Current dt:dt=""r8"">0</Current><DateUtc dt:dt=""string"">2017-10-10T17:16:16Z</DateUtc></FrequencyChange></FrequencyChanges></Clock>\n",Individual-004-1,59.955,?,1.0.0.478,1,-1322845622,Professional,2.0.10.353,2.0.10.353,10/10/2017,10/10/2017 17:16,18:16:16,2.0.10.248,1,1,1,1,M1,List1,3,3,1,3,NULL,NULL,NULL,b1,BlockList1,23,81,2,23,e,NULL,NULL,NULL,NULL,NULL,NULL,NULL,NULL,NULL,TrialProc4,b1trails1,blue,e,1,e,615
Individual,4,1,"<?xml version=""1.0""?>\n<Clock xmlns:dt=""urn:schemas-microsoft-com:datatypes""><Description dt:dt=""string"">E-Prime Primary Realtime Clock</Description><StartTime><Timestamp dt:dt=""int"">0</Timestamp><DateUtc dt:dt=""string"">2017-10-10T17:16:16Z</DateUtc></StartTime><FrequencyChanges><FrequencyChange><Frequency dt:dt=""r8"">2923154</Frequency><Timestamp dt:dt=""r8"">320799132749</Timestamp><Current dt:dt=""r8"">0</Current><DateUtc dt:dt=""string"">2017-10-10T17:16:16Z</DateUtc></FrequencyChange></FrequencyChanges></Clock>\n",Individual-004-1,59.955,?,1.0.0.478,1,-1322845622,Professional,2.0.10.353,2.0.10.353,10/10/2017,10/10/2017 17:16,18:16:16,2.0.10.248,1,1,1,1,M1,List1,3,3,1,3,NULL,NULL,NULL,b1,BlockList1,24,8,2,24,w,NULL,NULL,NULL,NULL,NULL,NULL,NULL,NULL,NULL,TrialProc4,b1trails1,red,e,1,w,405
Individual,4,1,"<?xml version=""1.0""?>\n<Clock xmlns:dt=""urn:schemas-microsoft-com:datatypes""><Description dt:dt=""string"">E-Prime Primary Realtime Clock</Description><StartTime><Timestamp dt:dt=""int"">0</Timestamp><DateUtc dt:dt=""string"">2017-10-10T17:16:16Z</DateUtc></StartTime><FrequencyChanges><FrequencyChange><Frequency dt:dt=""r8"">2923154</Frequency><Timestamp dt:dt=""r8"">320799132749</Timestamp><Current dt:dt=""r8"">0</Current><DateUtc dt:dt=""string"">2017-10-10T17:16:16Z</DateUtc></FrequencyChange></FrequencyChanges></Clock>\n",Individual-004-1,59.955,?,1.0.0.478,1,-1322845622,Professional,2.0.10.353,2.0.10.353,10/10/2017,10/10/2017 17:16,18:16:16,2.0.10.248,1,1,1,1,M1,List1,3,3,1,3,NULL,NULL,NULL,b1,BlockList1,25,21,2,25,e,NULL,NULL,NULL,NULL,NULL,NULL,NULL,NULL,NULL,TrialProc4,b1trails1,blue,e,1,e,456
Individual,4,1,"<?xml version=""1.0""?>\n<Clock xmlns:dt=""urn:schemas-microsoft-com:datatypes""><Description dt:dt=""string"">E-Prime Primary Realtime Clock</Description><StartTime><Timestamp dt:dt=""int"">0</Timestamp><DateUtc dt:dt=""string"">2017-10-10T17:16:16Z</DateUtc></StartTime><FrequencyChanges><FrequencyChange><Frequency dt:dt=""r8"">2923154</Frequency><Timestamp dt:dt=""r8"">320799132749</Timestamp><Current dt:dt=""r8"">0</Current><DateUtc dt:dt=""string"">2017-10-10T17:16:16Z</DateUtc></FrequencyChange></FrequencyChanges></Clock>\n",Individual-004-1,59.955,?,1.0.0.478,1,-1322845622,Professional,2.0.10.353,2.0.10.353,10/10/2017,10/10/2017 17:16,18:16:16,2.0.10.248,1,1,1,1,M1,List1,3,3,1,3,NULL,NULL,NULL,b1,BlockList1,26,2,2,26,e,NULL,NULL,NULL,NULL,NULL,NULL,NULL,NULL,NULL,TrialProc4,b1trails1,blue,w,1,e,694
Individual,4,1,"<?xml version=""1.0""?>\n<Clock xmlns:dt=""urn:schemas-microsoft-com:datatypes""><Description dt:dt=""string"">E-Prime Primary Realtime Clock</Description><StartTime><Timestamp dt:dt=""int"">0</Timestamp><DateUtc dt:dt=""string"">2017-10-10T17:16:16Z</DateUtc></StartTime><FrequencyChanges><FrequencyChange><Frequency dt:dt=""r8"">2923154</Frequency><Timestamp dt:dt=""r8"">320799132749</Timestamp><Current dt:dt=""r8"">0</Current><DateUtc dt:dt=""string"">2017-10-10T17:16:16Z</DateUtc></FrequencyChange></FrequencyChanges></Clock>\n",Individual-004-1,59.955,?,1.0.0.478,1,-1322845622,Professional,2.0.10.353,2.0.10.353,10/10/2017,10/10/2017 17:16,18:16:16,2.0.10.248,1,1,1,1,M1,List1,3,3,1,3,NULL,NULL,NULL,b1,BlockList1,27,69,2,27,e,NULL,NULL,NULL,NULL,NULL,NULL,NULL,NULL,NULL,TrialProc4,b1trails1,blue,e,1,e,543
Individual,4,1,"<?xml version=""1.0""?>\n<Clock xmlns:dt=""urn:schemas-microsoft-com:datatypes""><Description dt:dt=""string"">E-Prime Primary Realtime Clock</Description><StartTime><Timestamp dt:dt=""int"">0</Timestamp><DateUtc dt:dt=""string"">2017-10-10T17:16:16Z</DateUtc></StartTime><FrequencyChanges><FrequencyChange><Frequency dt:dt=""r8"">2923154</Frequency><Timestamp dt:dt=""r8"">320799132749</Timestamp><Current dt:dt=""r8"">0</Current><DateUtc dt:dt=""string"">2017-10-10T17:16:16Z</DateUtc></FrequencyChange></FrequencyChanges></Clock>\n",Individual-004-1,59.955,?,1.0.0.478,1,-1322845622,Professional,2.0.10.353,2.0.10.353,10/10/2017,10/10/2017 17:16,18:16:16,2.0.10.248,1,1,1,1,M1,List1,3,3,1,3,NULL,NULL,NULL,b1,BlockList1,28,42,2,28,e,NULL,NULL,NULL,NULL,NULL,NULL,NULL,NULL,NULL,TrialProc4,b1trails1,blue,w,1,e,731
Individual,4,1,"<?xml version=""1.0""?>\n<Clock xmlns:dt=""urn:schemas-microsoft-com:datatypes""><Description dt:dt=""string"">E-Prime Primary Realtime Clock</Description><StartTime><Timestamp dt:dt=""int"">0</Timestamp><DateUtc dt:dt=""string"">2017-10-10T17:16:16Z</DateUtc></StartTime><FrequencyChanges><FrequencyChange><Frequency dt:dt=""r8"">2923154</Frequency><Timestamp dt:dt=""r8"">320799132749</Timestamp><Current dt:dt=""r8"">0</Current><DateUtc dt:dt=""string"">2017-10-10T17:16:16Z</DateUtc></FrequencyChange></FrequencyChanges></Clock>\n",Individual-004-1,59.955,?,1.0.0.478,1,-1322845622,Professional,2.0.10.353,2.0.10.353,10/10/2017,10/10/2017 17:16,18:16:16,2.0.10.248,1,1,1,1,M1,List1,3,3,1,3,NULL,NULL,NULL,b1,BlockList1,29,91,2,29,w,NULL,NULL,NULL,NULL,NULL,NULL,NULL,NULL,NULL,TrialProc4,b1trails1,red,w,1,w,585
Individual,4,1,"<?xml version=""1.0""?>\n<Clock xmlns:dt=""urn:schemas-microsoft-com:datatypes""><Description dt:dt=""string"">E-Prime Primary Realtime Clock</Description><StartTime><Timestamp dt:dt=""int"">0</Timestamp><DateUtc dt:dt=""string"">2017-10-10T17:16:16Z</DateUtc></StartTime><FrequencyChanges><FrequencyChange><Frequency dt:dt=""r8"">2923154</Frequency><Timestamp dt:dt=""r8"">320799132749</Timestamp><Current dt:dt=""r8"">0</Current><DateUtc dt:dt=""string"">2017-10-10T17:16:16Z</DateUtc></FrequencyChange></FrequencyChanges></Clock>\n",Individual-004-1,59.955,?,1.0.0.478,1,-1322845622,Professional,2.0.10.353,2.0.10.353,10/10/2017,10/10/2017 17:16,18:16:16,2.0.10.248,1,1,1,1,M1,List1,3,3,1,3,NULL,NULL,NULL,b1,BlockList1,30,23,2,30,w,NULL,NULL,NULL,NULL,NULL,NULL,NULL,NULL,NULL,TrialProc4,b1trails1,red,w,1,w,604
Individual,4,1,"<?xml version=""1.0""?>\n<Clock xmlns:dt=""urn:schemas-microsoft-com:datatypes""><Description dt:dt=""string"">E-Prime Primary Realtime Clock</Description><StartTime><Timestamp dt:dt=""int"">0</Timestamp><DateUtc dt:dt=""string"">2017-10-10T17:16:16Z</DateUtc></StartTime><FrequencyChanges><FrequencyChange><Frequency dt:dt=""r8"">2923154</Frequency><Timestamp dt:dt=""r8"">320799132749</Timestamp><Current dt:dt=""r8"">0</Current><DateUtc dt:dt=""string"">2017-10-10T17:16:16Z</DateUtc></FrequencyChange></FrequencyChanges></Clock>\n",Individual-004-1,59.955,?,1.0.0.478,1,-1322845622,Professional,2.0.10.353,2.0.10.353,10/10/2017,10/10/2017 17:16,18:16:16,2.0.10.248,1,1,1,1,M1,List1,3,3,1,3,NULL,NULL,NULL,b1,BlockList1,31,12,2,31,w,NULL,NULL,NULL,NULL,NULL,NULL,NULL,NULL,NULL,TrialProc4,b1trails1,red,e,1,w,587
Individual,4,1,"<?xml version=""1.0""?>\n<Clock xmlns:dt=""urn:schemas-microsoft-com:datatypes""><Description dt:dt=""string"">E-Prime Primary Realtime Clock</Description><StartTime><Timestamp dt:dt=""int"">0</Timestamp><DateUtc dt:dt=""string"">2017-10-10T17:16:16Z</DateUtc></StartTime><FrequencyChanges><FrequencyChange><Frequency dt:dt=""r8"">2923154</Frequency><Timestamp dt:dt=""r8"">320799132749</Timestamp><Current dt:dt=""r8"">0</Current><DateUtc dt:dt=""string"">2017-10-10T17:16:16Z</DateUtc></FrequencyChange></FrequencyChanges></Clock>\n",Individual-004-1,59.955,?,1.0.0.478,1,-1322845622,Professional,2.0.10.353,2.0.10.353,10/10/2017,10/10/2017 17:16,18:16:16,2.0.10.248,1,1,1,1,M1,List1,3,3,1,3,NULL,NULL,NULL,b1,BlockList1,32,31,2,32,w,NULL,NULL,NULL,NULL,NULL,NULL,NULL,NULL,NULL,TrialProc4,b1trails1,red,w,1,w,645
Individual,4,1,"<?xml version=""1.0""?>\n<Clock xmlns:dt=""urn:schemas-microsoft-com:datatypes""><Description dt:dt=""string"">E-Prime Primary Realtime Clock</Description><StartTime><Timestamp dt:dt=""int"">0</Timestamp><DateUtc dt:dt=""string"">2017-10-10T17:16:16Z</DateUtc></StartTime><FrequencyChanges><FrequencyChange><Frequency dt:dt=""r8"">2923154</Frequency><Timestamp dt:dt=""r8"">320799132749</Timestamp><Current dt:dt=""r8"">0</Current><DateUtc dt:dt=""string"">2017-10-10T17:16:16Z</DateUtc></FrequencyChange></FrequencyChanges></Clock>\n",Individual-004-1,59.955,?,1.0.0.478,1,-1322845622,Professional,2.0.10.353,2.0.10.353,10/10/2017,10/10/2017 17:16,18:16:16,2.0.10.248,1,1,1,1,M1,List1,3,3,1,3,NULL,NULL,NULL,b1,BlockList1,33,11,2,33,w,NULL,NULL,NULL,NULL,NULL,NULL,NULL,NULL,NULL,TrialProc4,b1trails1,red,w,1,w,485
Individual,4,1,"<?xml version=""1.0""?>\n<Clock xmlns:dt=""urn:schemas-microsoft-com:datatypes""><Description dt:dt=""string"">E-Prime Primary Realtime Clock</Description><StartTime><Timestamp dt:dt=""int"">0</Timestamp><DateUtc dt:dt=""string"">2017-10-10T17:16:16Z</DateUtc></StartTime><FrequencyChanges><FrequencyChange><Frequency dt:dt=""r8"">2923154</Frequency><Timestamp dt:dt=""r8"">320799132749</Timestamp><Current dt:dt=""r8"">0</Current><DateUtc dt:dt=""string"">2017-10-10T17:16:16Z</DateUtc></FrequencyChange></FrequencyChanges></Clock>\n",Individual-004-1,59.955,?,1.0.0.478,1,-1322845622,Professional,2.0.10.353,2.0.10.353,10/10/2017,10/10/2017 17:16,18:16:16,2.0.10.248,1,1,1,1,M1,List1,3,3,1,3,NULL,NULL,NULL,b1,BlockList1,34,63,2,34,w,NULL,NULL,NULL,NULL,NULL,NULL,NULL,NULL,NULL,TrialProc4,b1trails1,red,w,1,w,974
Individual,4,1,"<?xml version=""1.0""?>\n<Clock xmlns:dt=""urn:schemas-microsoft-com:datatypes""><Description dt:dt=""string"">E-Prime Primary Realtime Clock</Description><StartTime><Timestamp dt:dt=""int"">0</Timestamp><DateUtc dt:dt=""string"">2017-10-10T17:16:16Z</DateUtc></StartTime><FrequencyChanges><FrequencyChange><Frequency dt:dt=""r8"">2923154</Frequency><Timestamp dt:dt=""r8"">320799132749</Timestamp><Current dt:dt=""r8"">0</Current><DateUtc dt:dt=""string"">2017-10-10T17:16:16Z</DateUtc></FrequencyChange></FrequencyChanges></Clock>\n",Individual-004-1,59.955,?,1.0.0.478,1,-1322845622,Professional,2.0.10.353,2.0.10.353,10/10/2017,10/10/2017 17:16,18:16:16,2.0.10.248,1,1,1,1,M1,List1,3,3,1,3,NULL,NULL,NULL,b1,BlockList1,35,19,2,35,w,NULL,NULL,NULL,NULL,NULL,NULL,NULL,NULL,NULL,TrialProc4,b1trails1,red,w,1,w,502
Individual,4,1,"<?xml version=""1.0""?>\n<Clock xmlns:dt=""urn:schemas-microsoft-com:datatypes""><Description dt:dt=""string"">E-Prime Primary Realtime Clock</Description><StartTime><Timestamp dt:dt=""int"">0</Timestamp><DateUtc dt:dt=""string"">2017-10-10T17:16:16Z</DateUtc></StartTime><FrequencyChanges><FrequencyChange><Frequency dt:dt=""r8"">2923154</Frequency><Timestamp dt:dt=""r8"">320799132749</Timestamp><Current dt:dt=""r8"">0</Current><DateUtc dt:dt=""string"">2017-10-10T17:16:16Z</DateUtc></FrequencyChange></FrequencyChanges></Clock>\n",Individual-004-1,59.955,?,1.0.0.478,1,-1322845622,Professional,2.0.10.353,2.0.10.353,10/10/2017,10/10/2017 17:16,18:16:16,2.0.10.248,1,1,1,1,M1,List1,3,3,1,3,NULL,NULL,NULL,b1,BlockList1,36,1,2,36,e,NULL,NULL,NULL,NULL,NULL,NULL,NULL,NULL,NULL,TrialProc4,b1trails1,blue,e,1,e,428
Individual,4,1,"<?xml version=""1.0""?>\n<Clock xmlns:dt=""urn:schemas-microsoft-com:datatypes""><Description dt:dt=""string"">E-Prime Primary Realtime Clock</Description><StartTime><Timestamp dt:dt=""int"">0</Timestamp><DateUtc dt:dt=""string"">2017-10-10T17:16:16Z</DateUtc></StartTime><FrequencyChanges><FrequencyChange><Frequency dt:dt=""r8"">2923154</Frequency><Timestamp dt:dt=""r8"">320799132749</Timestamp><Current dt:dt=""r8"">0</Current><DateUtc dt:dt=""string"">2017-10-10T17:16:16Z</DateUtc></FrequencyChange></FrequencyChanges></Clock>\n",Individual-004-1,59.955,?,1.0.0.478,1,-1322845622,Professional,2.0.10.353,2.0.10.353,10/10/2017,10/10/2017 17:16,18:16:16,2.0.10.248,1,1,1,1,M1,List1,3,3,1,3,NULL,NULL,NULL,b1,BlockList1,37,87,2,37,w,NULL,NULL,NULL,NULL,NULL,NULL,NULL,NULL,NULL,TrialProc4,b1trails1,red,w,1,w,339
Individual,4,1,"<?xml version=""1.0""?>\n<Clock xmlns:dt=""urn:schemas-microsoft-com:datatypes""><Description dt:dt=""string"">E-Prime Primary Realtime Clock</Description><StartTime><Timestamp dt:dt=""int"">0</Timestamp><DateUtc dt:dt=""string"">2017-10-10T17:16:16Z</DateUtc></StartTime><FrequencyChanges><FrequencyChange><Frequency dt:dt=""r8"">2923154</Frequency><Timestamp dt:dt=""r8"">320799132749</Timestamp><Current dt:dt=""r8"">0</Current><DateUtc dt:dt=""string"">2017-10-10T17:16:16Z</DateUtc></FrequencyChange></FrequencyChanges></Clock>\n",Individual-004-1,59.955,?,1.0.0.478,1,-1322845622,Professional,2.0.10.353,2.0.10.353,10/10/2017,10/10/2017 17:16,18:16:16,2.0.10.248,1,1,1,1,M1,List1,3,3,1,3,NULL,NULL,NULL,b1,BlockList1,38,60,2,38,w,NULL,NULL,NULL,NULL,NULL,NULL,NULL,NULL,NULL,TrialProc4,b1trails1,red,e,1,w,1078
Individual,4,1,"<?xml version=""1.0""?>\n<Clock xmlns:dt=""urn:schemas-microsoft-com:datatypes""><Description dt:dt=""string"">E-Prime Primary Realtime Clock</Description><StartTime><Timestamp dt:dt=""int"">0</Timestamp><DateUtc dt:dt=""string"">2017-10-10T17:16:16Z</DateUtc></StartTime><FrequencyChanges><FrequencyChange><Frequency dt:dt=""r8"">2923154</Frequency><Timestamp dt:dt=""r8"">320799132749</Timestamp><Current dt:dt=""r8"">0</Current><DateUtc dt:dt=""string"">2017-10-10T17:16:16Z</DateUtc></FrequencyChange></FrequencyChanges></Clock>\n",Individual-004-1,59.955,?,1.0.0.478,1,-1322845622,Professional,2.0.10.353,2.0.10.353,10/10/2017,10/10/2017 17:16,18:16:16,2.0.10.248,1,1,1,1,M1,List1,3,3,1,3,NULL,NULL,NULL,b1,BlockList1,39,83,2,39,w,NULL,NULL,NULL,NULL,NULL,NULL,NULL,NULL,NULL,TrialProc4,b1trails1,red,w,1,w,721
Individual,4,1,"<?xml version=""1.0""?>\n<Clock xmlns:dt=""urn:schemas-microsoft-com:datatypes""><Description dt:dt=""string"">E-Prime Primary Realtime Clock</Description><StartTime><Timestamp dt:dt=""int"">0</Timestamp><DateUtc dt:dt=""string"">2017-10-10T17:16:16Z</DateUtc></StartTime><FrequencyChanges><FrequencyChange><Frequency dt:dt=""r8"">2923154</Frequency><Timestamp dt:dt=""r8"">320799132749</Timestamp><Current dt:dt=""r8"">0</Current><DateUtc dt:dt=""string"">2017-10-10T17:16:16Z</DateUtc></FrequencyChange></FrequencyChanges></Clock>\n",Individual-004-1,59.955,?,1.0.0.478,1,-1322845622,Professional,2.0.10.353,2.0.10.353,10/10/2017,10/10/2017 17:16,18:16:16,2.0.10.248,1,1,1,1,M1,List1,3,3,1,3,NULL,NULL,NULL,b1,BlockList1,40,72,2,40,w,NULL,NULL,NULL,NULL,NULL,NULL,NULL,NULL,NULL,TrialProc4,b1trails1,red,e,1,w,662
Individual,4,1,"<?xml version=""1.0""?>\n<Clock xmlns:dt=""urn:schemas-microsoft-com:datatypes""><Description dt:dt=""string"">E-Prime Primary Realtime Clock</Description><StartTime><Timestamp dt:dt=""int"">0</Timestamp><DateUtc dt:dt=""string"">2017-10-10T17:16:16Z</DateUtc></StartTime><FrequencyChanges><FrequencyChange><Frequency dt:dt=""r8"">2923154</Frequency><Timestamp dt:dt=""r8"">320799132749</Timestamp><Current dt:dt=""r8"">0</Current><DateUtc dt:dt=""string"">2017-10-10T17:16:16Z</DateUtc></FrequencyChange></FrequencyChanges></Clock>\n",Individual-004-1,59.955,?,1.0.0.478,1,-1322845622,Professional,2.0.10.353,2.0.10.353,10/10/2017,10/10/2017 17:16,18:16:16,2.0.10.248,1,1,1,1,M1,List1,3,3,1,3,NULL,NULL,NULL,b1,BlockList1,41,34,2,41,e,NULL,NULL,NULL,NULL,NULL,NULL,NULL,NULL,NULL,TrialProc4,b1trails1,blue,w,1,e,545
Individual,4,1,"<?xml version=""1.0""?>\n<Clock xmlns:dt=""urn:schemas-microsoft-com:datatypes""><Description dt:dt=""string"">E-Prime Primary Realtime Clock</Description><StartTime><Timestamp dt:dt=""int"">0</Timestamp><DateUtc dt:dt=""string"">2017-10-10T17:16:16Z</DateUtc></StartTime><FrequencyChanges><FrequencyChange><Frequency dt:dt=""r8"">2923154</Frequency><Timestamp dt:dt=""r8"">320799132749</Timestamp><Current dt:dt=""r8"">0</Current><DateUtc dt:dt=""string"">2017-10-10T17:16:16Z</DateUtc></FrequencyChange></FrequencyChanges></Clock>\n",Individual-004-1,59.955,?,1.0.0.478,1,-1322845622,Professional,2.0.10.353,2.0.10.353,10/10/2017,10/10/2017 17:16,18:16:16,2.0.10.248,1,1,1,1,M1,List1,3,3,1,3,NULL,NULL,NULL,b1,BlockList1,42,59,2,42,w,NULL,NULL,NULL,NULL,NULL,NULL,NULL,NULL,NULL,TrialProc4,b1trails1,red,w,1,w,916
Individual,4,1,"<?xml version=""1.0""?>\n<Clock xmlns:dt=""urn:schemas-microsoft-com:datatypes""><Description dt:dt=""string"">E-Prime Primary Realtime Clock</Description><StartTime><Timestamp dt:dt=""int"">0</Timestamp><DateUtc dt:dt=""string"">2017-10-10T17:16:16Z</DateUtc></StartTime><FrequencyChanges><FrequencyChange><Frequency dt:dt=""r8"">2923154</Frequency><Timestamp dt:dt=""r8"">320799132749</Timestamp><Current dt:dt=""r8"">0</Current><DateUtc dt:dt=""string"">2017-10-10T17:16:16Z</DateUtc></FrequencyChange></FrequencyChanges></Clock>\n",Individual-004-1,59.955,?,1.0.0.478,1,-1322845622,Professional,2.0.10.353,2.0.10.353,10/10/2017,10/10/2017 17:16,18:16:16,2.0.10.248,1,1,1,1,M1,List1,3,3,1,3,NULL,NULL,NULL,b1,BlockList1,43,35,2,43,w,NULL,NULL,NULL,NULL,NULL,NULL,NULL,NULL,NULL,TrialProc4,b1trails1,red,w,1,w,656
Individual,4,1,"<?xml version=""1.0""?>\n<Clock xmlns:dt=""urn:schemas-microsoft-com:datatypes""><Description dt:dt=""string"">E-Prime Primary Realtime Clock</Description><StartTime><Timestamp dt:dt=""int"">0</Timestamp><DateUtc dt:dt=""string"">2017-10-10T17:16:16Z</DateUtc></StartTime><FrequencyChanges><FrequencyChange><Frequency dt:dt=""r8"">2923154</Frequency><Timestamp dt:dt=""r8"">320799132749</Timestamp><Current dt:dt=""r8"">0</Current><DateUtc dt:dt=""string"">2017-10-10T17:16:16Z</DateUtc></FrequencyChange></FrequencyChanges></Clock>\n",Individual-004-1,59.955,?,1.0.0.478,1,-1322845622,Professional,2.0.10.353,2.0.10.353,10/10/2017,10/10/2017 17:16,18:16:16,2.0.10.248,1,1,1,1,M1,List1,3,3,1,3,NULL,NULL,NULL,b1,BlockList1,44,33,2,44,e,NULL,NULL,NULL,NULL,NULL,NULL,NULL,NULL,NULL,TrialProc4,b1trails1,blue,e,1,e,609
Individual,4,1,"<?xml version=""1.0""?>\n<Clock xmlns:dt=""urn:schemas-microsoft-com:datatypes""><Description dt:dt=""string"">E-Prime Primary Realtime Clock</Description><StartTime><Timestamp dt:dt=""int"">0</Timestamp><DateUtc dt:dt=""string"">2017-10-10T17:16:16Z</DateUtc></StartTime><FrequencyChanges><FrequencyChange><Frequency dt:dt=""r8"">2923154</Frequency><Timestamp dt:dt=""r8"">320799132749</Timestamp><Current dt:dt=""r8"">0</Current><DateUtc dt:dt=""string"">2017-10-10T17:16:16Z</DateUtc></FrequencyChange></FrequencyChanges></Clock>\n",Individual-004-1,59.955,?,1.0.0.478,1,-1322845622,Professional,2.0.10.353,2.0.10.353,10/10/2017,10/10/2017 17:16,18:16:16,2.0.10.248,1,1,1,1,M1,List1,3,3,1,3,NULL,NULL,NULL,b1,BlockList1,45,53,2,45,e,NULL,NULL,NULL,NULL,NULL,NULL,NULL,NULL,NULL,TrialProc4,b1trails1,blue,e,1,e,790
Individual,4,1,"<?xml version=""1.0""?>\n<Clock xmlns:dt=""urn:schemas-microsoft-com:datatypes""><Description dt:dt=""string"">E-Prime Primary Realtime Clock</Description><StartTime><Timestamp dt:dt=""int"">0</Timestamp><DateUtc dt:dt=""string"">2017-10-10T17:16:16Z</DateUtc></StartTime><FrequencyChanges><FrequencyChange><Frequency dt:dt=""r8"">2923154</Frequency><Timestamp dt:dt=""r8"">320799132749</Timestamp><Current dt:dt=""r8"">0</Current><DateUtc dt:dt=""string"">2017-10-10T17:16:16Z</DateUtc></FrequencyChange></FrequencyChanges></Clock>\n",Individual-004-1,59.955,?,1.0.0.478,1,-1322845622,Professional,2.0.10.353,2.0.10.353,10/10/2017,10/10/2017 17:16,18:16:16,2.0.10.248,1,1,1,1,M1,List1,3,3,1,3,NULL,NULL,NULL,b1,BlockList1,46,54,2,46,e,NULL,NULL,NULL,NULL,NULL,NULL,NULL,NULL,NULL,TrialProc4,b1trails1,blue,w,0,w,1039
Individual,4,1,"<?xml version=""1.0""?>\n<Clock xmlns:dt=""urn:schemas-microsoft-com:datatypes""><Description dt:dt=""string"">E-Prime Primary Realtime Clock</Description><StartTime><Timestamp dt:dt=""int"">0</Timestamp><DateUtc dt:dt=""string"">2017-10-10T17:16:16Z</DateUtc></StartTime><FrequencyChanges><FrequencyChange><Frequency dt:dt=""r8"">2923154</Frequency><Timestamp dt:dt=""r8"">320799132749</Timestamp><Current dt:dt=""r8"">0</Current><DateUtc dt:dt=""string"">2017-10-10T17:16:16Z</DateUtc></FrequencyChange></FrequencyChanges></Clock>\n",Individual-004-1,59.955,?,1.0.0.478,1,-1322845622,Professional,2.0.10.353,2.0.10.353,10/10/2017,10/10/2017 17:16,18:16:16,2.0.10.248,1,1,1,1,M1,List1,3,3,1,3,NULL,NULL,NULL,b1,BlockList1,47,73,2,47,e,NULL,NULL,NULL,NULL,NULL,NULL,NULL,NULL,NULL,TrialProc4,b1trails1,blue,e,1,e,644
Individual,4,1,"<?xml version=""1.0""?>\n<Clock xmlns:dt=""urn:schemas-microsoft-com:datatypes""><Description dt:dt=""string"">E-Prime Primary Realtime Clock</Description><StartTime><Timestamp dt:dt=""int"">0</Timestamp><DateUtc dt:dt=""string"">2017-10-10T17:16:16Z</DateUtc></StartTime><FrequencyChanges><FrequencyChange><Frequency dt:dt=""r8"">2923154</Frequency><Timestamp dt:dt=""r8"">320799132749</Timestamp><Current dt:dt=""r8"">0</Current><DateUtc dt:dt=""string"">2017-10-10T17:16:16Z</DateUtc></FrequencyChange></FrequencyChanges></Clock>\n",Individual-004-1,59.955,?,1.0.0.478,1,-1322845622,Professional,2.0.10.353,2.0.10.353,10/10/2017,10/10/2017 17:16,18:16:16,2.0.10.248,1,1,1,1,M1,List1,3,3,1,3,NULL,NULL,NULL,b1,BlockList1,48,20,2,48,w,NULL,NULL,NULL,NULL,NULL,NULL,NULL,NULL,NULL,TrialProc4,b1trails1,red,e,1,w,491
Individual,4,1,"<?xml version=""1.0""?>\n<Clock xmlns:dt=""urn:schemas-microsoft-com:datatypes""><Description dt:dt=""string"">E-Prime Primary Realtime Clock</Description><StartTime><Timestamp dt:dt=""int"">0</Timestamp><DateUtc dt:dt=""string"">2017-10-10T17:16:16Z</DateUtc></StartTime><FrequencyChanges><FrequencyChange><Frequency dt:dt=""r8"">2923154</Frequency><Timestamp dt:dt=""r8"">320799132749</Timestamp><Current dt:dt=""r8"">0</Current><DateUtc dt:dt=""string"">2017-10-10T17:16:16Z</DateUtc></FrequencyChange></FrequencyChanges></Clock>\n",Individual-004-1,59.955,?,1.0.0.478,1,-1322845622,Professional,2.0.10.353,2.0.10.353,10/10/2017,10/10/2017 17:16,18:16:16,2.0.10.248,1,1,1,1,M1,List1,3,3,1,3,NULL,NULL,NULL,b1,BlockList1,49,24,2,49,w,NULL,NULL,NULL,NULL,NULL,NULL,NULL,NULL,NULL,TrialProc4,b1trails1,red,e,1,w,1096
Individual,4,1,"<?xml version=""1.0""?>\n<Clock xmlns:dt=""urn:schemas-microsoft-com:datatypes""><Description dt:dt=""string"">E-Prime Primary Realtime Clock</Description><StartTime><Timestamp dt:dt=""int"">0</Timestamp><DateUtc dt:dt=""string"">2017-10-10T17:16:16Z</DateUtc></StartTime><FrequencyChanges><FrequencyChange><Frequency dt:dt=""r8"">2923154</Frequency><Timestamp dt:dt=""r8"">320799132749</Timestamp><Current dt:dt=""r8"">0</Current><DateUtc dt:dt=""string"">2017-10-10T17:16:16Z</DateUtc></FrequencyChange></FrequencyChanges></Clock>\n",Individual-004-1,59.955,?,1.0.0.478,1,-1322845622,Professional,2.0.10.353,2.0.10.353,10/10/2017,10/10/2017 17:16,18:16:16,2.0.10.248,1,1,1,1,M1,List1,3,3,1,3,NULL,NULL,NULL,b1,BlockList1,50,48,2,50,w,NULL,NULL,NULL,NULL,NULL,NULL,NULL,NULL,NULL,TrialProc4,b1trails1,red,e,1,w,832
Individual,4,1,"<?xml version=""1.0""?>\n<Clock xmlns:dt=""urn:schemas-microsoft-com:datatypes""><Description dt:dt=""string"">E-Prime Primary Realtime Clock</Description><StartTime><Timestamp dt:dt=""int"">0</Timestamp><DateUtc dt:dt=""string"">2017-10-10T17:16:16Z</DateUtc></StartTime><FrequencyChanges><FrequencyChange><Frequency dt:dt=""r8"">2923154</Frequency><Timestamp dt:dt=""r8"">320799132749</Timestamp><Current dt:dt=""r8"">0</Current><DateUtc dt:dt=""string"">2017-10-10T17:16:16Z</DateUtc></FrequencyChange></FrequencyChanges></Clock>\n",Individual-004-1,59.955,?,1.0.0.478,1,-1322845622,Professional,2.0.10.353,2.0.10.353,10/10/2017,10/10/2017 17:16,18:16:16,2.0.10.248,1,1,1,1,M1,List1,3,3,1,3,NULL,NULL,NULL,b1,BlockList1,51,82,2,51,e,NULL,NULL,NULL,NULL,NULL,NULL,NULL,NULL,NULL,TrialProc4,b1trails1,blue,w,1,e,473
Individual,4,1,"<?xml version=""1.0""?>\n<Clock xmlns:dt=""urn:schemas-microsoft-com:datatypes""><Description dt:dt=""string"">E-Prime Primary Realtime Clock</Description><StartTime><Timestamp dt:dt=""int"">0</Timestamp><DateUtc dt:dt=""string"">2017-10-10T17:16:16Z</DateUtc></StartTime><FrequencyChanges><FrequencyChange><Frequency dt:dt=""r8"">2923154</Frequency><Timestamp dt:dt=""r8"">320799132749</Timestamp><Current dt:dt=""r8"">0</Current><DateUtc dt:dt=""string"">2017-10-10T17:16:16Z</DateUtc></FrequencyChange></FrequencyChanges></Clock>\n",Individual-004-1,59.955,?,1.0.0.478,1,-1322845622,Professional,2.0.10.353,2.0.10.353,10/10/2017,10/10/2017 17:16,18:16:16,2.0.10.248,1,1,1,1,M1,List1,3,3,1,3,NULL,NULL,NULL,b1,BlockList1,52,58,2,52,e,NULL,NULL,NULL,NULL,NULL,NULL,NULL,NULL,NULL,TrialProc4,b1trails1,blue,w,1,e,563
Individual,4,1,"<?xml version=""1.0""?>\n<Clock xmlns:dt=""urn:schemas-microsoft-com:datatypes""><Description dt:dt=""string"">E-Prime Primary Realtime Clock</Description><StartTime><Timestamp dt:dt=""int"">0</Timestamp><DateUtc dt:dt=""string"">2017-10-10T17:16:16Z</DateUtc></StartTime><FrequencyChanges><FrequencyChange><Frequency dt:dt=""r8"">2923154</Frequency><Timestamp dt:dt=""r8"">320799132749</Timestamp><Current dt:dt=""r8"">0</Current><DateUtc dt:dt=""string"">2017-10-10T17:16:16Z</DateUtc></FrequencyChange></FrequencyChanges></Clock>\n",Individual-004-1,59.955,?,1.0.0.478,1,-1322845622,Professional,2.0.10.353,2.0.10.353,10/10/2017,10/10/2017 17:16,18:16:16,2.0.10.248,1,1,1,1,M1,List1,3,3,1,3,NULL,NULL,NULL,b1,BlockList1,53,22,2,53,e,NULL,NULL,NULL,NULL,NULL,NULL,NULL,NULL,NULL,TrialProc4,b1trails1,blue,w,1,e,803
Individual,4,1,"<?xml version=""1.0""?>\n<Clock xmlns:dt=""urn:schemas-microsoft-com:datatypes""><Description dt:dt=""string"">E-Prime Primary Realtime Clock</Description><StartTime><Timestamp dt:dt=""int"">0</Timestamp><DateUtc dt:dt=""string"">2017-10-10T17:16:16Z</DateUtc></StartTime><FrequencyChanges><FrequencyChange><Frequency dt:dt=""r8"">2923154</Frequency><Timestamp dt:dt=""r8"">320799132749</Timestamp><Current dt:dt=""r8"">0</Current><DateUtc dt:dt=""string"">2017-10-10T17:16:16Z</DateUtc></FrequencyChange></FrequencyChanges></Clock>\n",Individual-004-1,59.955,?,1.0.0.478,1,-1322845622,Professional,2.0.10.353,2.0.10.353,10/10/2017,10/10/2017 17:16,18:16:16,2.0.10.248,1,1,1,1,M1,List1,3,3,1,3,NULL,NULL,NULL,b1,BlockList1,54,85,2,54,e,NULL,NULL,NULL,NULL,NULL,NULL,NULL,NULL,NULL,TrialProc4,b1trails1,blue,e,1,e,1010
Individual,4,1,"<?xml version=""1.0""?>\n<Clock xmlns:dt=""urn:schemas-microsoft-com:datatypes""><Description dt:dt=""string"">E-Prime Primary Realtime Clock</Description><StartTime><Timestamp dt:dt=""int"">0</Timestamp><DateUtc dt:dt=""string"">2017-10-10T17:16:16Z</DateUtc></StartTime><FrequencyChanges><FrequencyChange><Frequency dt:dt=""r8"">2923154</Frequency><Timestamp dt:dt=""r8"">320799132749</Timestamp><Current dt:dt=""r8"">0</Current><DateUtc dt:dt=""string"">2017-10-10T17:16:16Z</DateUtc></FrequencyChange></FrequencyChanges></Clock>\n",Individual-004-1,59.955,?,1.0.0.478,1,-1322845622,Professional,2.0.10.353,2.0.10.353,10/10/2017,10/10/2017 17:16,18:16:16,2.0.10.248,1,1,1,1,M1,List1,3,3,1,3,NULL,NULL,NULL,b1,BlockList1,55,10,2,55,e,NULL,NULL,NULL,NULL,NULL,NULL,NULL,NULL,NULL,TrialProc4,b1trails1,blue,w,1,e,626
Individual,4,1,"<?xml version=""1.0""?>\n<Clock xmlns:dt=""urn:schemas-microsoft-com:datatypes""><Description dt:dt=""string"">E-Prime Primary Realtime Clock</Description><StartTime><Timestamp dt:dt=""int"">0</Timestamp><DateUtc dt:dt=""string"">2017-10-10T17:16:16Z</DateUtc></StartTime><FrequencyChanges><FrequencyChange><Frequency dt:dt=""r8"">2923154</Frequency><Timestamp dt:dt=""r8"">320799132749</Timestamp><Current dt:dt=""r8"">0</Current><DateUtc dt:dt=""string"">2017-10-10T17:16:16Z</DateUtc></FrequencyChange></FrequencyChanges></Clock>\n",Individual-004-1,59.955,?,1.0.0.478,1,-1322845622,Professional,2.0.10.353,2.0.10.353,10/10/2017,10/10/2017 17:16,18:16:16,2.0.10.248,1,1,1,1,M1,List1,3,3,1,3,NULL,NULL,NULL,b1,BlockList1,56,62,2,56,e,NULL,NULL,NULL,NULL,NULL,NULL,NULL,NULL,NULL,TrialProc4,b1trails1,blue,w,1,e,567
Individual,4,1,"<?xml version=""1.0""?>\n<Clock xmlns:dt=""urn:schemas-microsoft-com:datatypes""><Description dt:dt=""string"">E-Prime Primary Realtime Clock</Description><StartTime><Timestamp dt:dt=""int"">0</Timestamp><DateUtc dt:dt=""string"">2017-10-10T17:16:16Z</DateUtc></StartTime><FrequencyChanges><FrequencyChange><Frequency dt:dt=""r8"">2923154</Frequency><Timestamp dt:dt=""r8"">320799132749</Timestamp><Current dt:dt=""r8"">0</Current><DateUtc dt:dt=""string"">2017-10-10T17:16:16Z</DateUtc></FrequencyChange></FrequencyChanges></Clock>\n",Individual-004-1,59.955,?,1.0.0.478,1,-1322845622,Professional,2.0.10.353,2.0.10.353,10/10/2017,10/10/2017 17:16,18:16:16,2.0.10.248,1,1,1,1,M1,List1,3,3,1,3,NULL,NULL,NULL,b1,BlockList1,57,9,2,57,e,NULL,NULL,NULL,NULL,NULL,NULL,NULL,NULL,NULL,TrialProc4,b1trails1,blue,e,1,e,598
Individual,4,1,"<?xml version=""1.0""?>\n<Clock xmlns:dt=""urn:schemas-microsoft-com:datatypes""><Description dt:dt=""string"">E-Prime Primary Realtime Clock</Description><StartTime><Timestamp dt:dt=""int"">0</Timestamp><DateUtc dt:dt=""string"">2017-10-10T17:16:16Z</DateUtc></StartTime><FrequencyChanges><FrequencyChange><Frequency dt:dt=""r8"">2923154</Frequency><Timestamp dt:dt=""r8"">320799132749</Timestamp><Current dt:dt=""r8"">0</Current><DateUtc dt:dt=""string"">2017-10-10T17:16:16Z</DateUtc></FrequencyChange></FrequencyChanges></Clock>\n",Individual-004-1,59.955,?,1.0.0.478,1,-1322845622,Professional,2.0.10.353,2.0.10.353,10/10/2017,10/10/2017 17:16,18:16:16,2.0.10.248,1,1,1,1,M1,List1,3,3,1,3,NULL,NULL,NULL,b1,BlockList1,58,65,2,58,e,NULL,NULL,NULL,NULL,NULL,NULL,NULL,NULL,NULL,TrialProc4,b1trails1,blue,e,1,e,543
Individual,4,1,"<?xml version=""1.0""?>\n<Clock xmlns:dt=""urn:schemas-microsoft-com:datatypes""><Description dt:dt=""string"">E-Prime Primary Realtime Clock</Description><StartTime><Timestamp dt:dt=""int"">0</Timestamp><DateUtc dt:dt=""string"">2017-10-10T17:16:16Z</DateUtc></StartTime><FrequencyChanges><FrequencyChange><Frequency dt:dt=""r8"">2923154</Frequency><Timestamp dt:dt=""r8"">320799132749</Timestamp><Current dt:dt=""r8"">0</Current><DateUtc dt:dt=""string"">2017-10-10T17:16:16Z</DateUtc></FrequencyChange></FrequencyChanges></Clock>\n",Individual-004-1,59.955,?,1.0.0.478,1,-1322845622,Professional,2.0.10.353,2.0.10.353,10/10/2017,10/10/2017 17:16,18:16:16,2.0.10.248,1,1,1,1,M1,List1,3,3,1,3,NULL,NULL,NULL,b1,BlockList1,59,41,2,59,e,NULL,NULL,NULL,NULL,NULL,NULL,NULL,NULL,NULL,TrialProc4,b1trails1,blue,e,1,e,721
Individual,4,1,"<?xml version=""1.0""?>\n<Clock xmlns:dt=""urn:schemas-microsoft-com:datatypes""><Description dt:dt=""string"">E-Prime Primary Realtime Clock</Description><StartTime><Timestamp dt:dt=""int"">0</Timestamp><DateUtc dt:dt=""string"">2017-10-10T17:16:16Z</DateUtc></StartTime><FrequencyChanges><FrequencyChange><Frequency dt:dt=""r8"">2923154</Frequency><Timestamp dt:dt=""r8"">320799132749</Timestamp><Current dt:dt=""r8"">0</Current><DateUtc dt:dt=""string"">2017-10-10T17:16:16Z</DateUtc></FrequencyChange></FrequencyChanges></Clock>\n",Individual-004-1,59.955,?,1.0.0.478,1,-1322845622,Professional,2.0.10.353,2.0.10.353,10/10/2017,10/10/2017 17:16,18:16:16,2.0.10.248,1,1,1,1,M1,List1,3,3,1,3,NULL,NULL,NULL,b1,BlockList1,60,39,2,60,w,NULL,NULL,NULL,NULL,NULL,NULL,NULL,NULL,NULL,TrialProc4,b1trails1,red,w,1,w,729
Individual,4,1,"<?xml version=""1.0""?>\n<Clock xmlns:dt=""urn:schemas-microsoft-com:datatypes""><Description dt:dt=""string"">E-Prime Primary Realtime Clock</Description><StartTime><Timestamp dt:dt=""int"">0</Timestamp><DateUtc dt:dt=""string"">2017-10-10T17:16:16Z</DateUtc></StartTime><FrequencyChanges><FrequencyChange><Frequency dt:dt=""r8"">2923154</Frequency><Timestamp dt:dt=""r8"">320799132749</Timestamp><Current dt:dt=""r8"">0</Current><DateUtc dt:dt=""string"">2017-10-10T17:16:16Z</DateUtc></FrequencyChange></FrequencyChanges></Clock>\n",Individual-004-1,59.955,?,1.0.0.478,1,-1322845622,Professional,2.0.10.353,2.0.10.353,10/10/2017,10/10/2017 17:16,18:16:16,2.0.10.248,1,1,1,1,M1,List1,3,3,1,3,NULL,NULL,NULL,b1,BlockList1,61,44,2,61,w,NULL,NULL,NULL,NULL,NULL,NULL,NULL,NULL,NULL,TrialProc4,b1trails1,red,e,1,w,541
Individual,4,1,"<?xml version=""1.0""?>\n<Clock xmlns:dt=""urn:schemas-microsoft-com:datatypes""><Description dt:dt=""string"">E-Prime Primary Realtime Clock</Description><StartTime><Timestamp dt:dt=""int"">0</Timestamp><DateUtc dt:dt=""string"">2017-10-10T17:16:16Z</DateUtc></StartTime><FrequencyChanges><FrequencyChange><Frequency dt:dt=""r8"">2923154</Frequency><Timestamp dt:dt=""r8"">320799132749</Timestamp><Current dt:dt=""r8"">0</Current><DateUtc dt:dt=""string"">2017-10-10T17:16:16Z</DateUtc></FrequencyChange></FrequencyChanges></Clock>\n",Individual-004-1,59.955,?,1.0.0.478,1,-1322845622,Professional,2.0.10.353,2.0.10.353,10/10/2017,10/10/2017 17:16,18:16:16,2.0.10.248,1,1,1,1,M1,List1,3,3,1,3,NULL,NULL,NULL,b1,BlockList1,62,16,2,62,w,NULL,NULL,NULL,NULL,NULL,NULL,NULL,NULL,NULL,TrialProc4,b1trails1,red,e,1,w,637
Individual,4,1,"<?xml version=""1.0""?>\n<Clock xmlns:dt=""urn:schemas-microsoft-com:datatypes""><Description dt:dt=""string"">E-Prime Primary Realtime Clock</Description><StartTime><Timestamp dt:dt=""int"">0</Timestamp><DateUtc dt:dt=""string"">2017-10-10T17:16:16Z</DateUtc></StartTime><FrequencyChanges><FrequencyChange><Frequency dt:dt=""r8"">2923154</Frequency><Timestamp dt:dt=""r8"">320799132749</Timestamp><Current dt:dt=""r8"">0</Current><DateUtc dt:dt=""string"">2017-10-10T17:16:16Z</DateUtc></FrequencyChange></FrequencyChanges></Clock>\n",Individual-004-1,59.955,?,1.0.0.478,1,-1322845622,Professional,2.0.10.353,2.0.10.353,10/10/2017,10/10/2017 17:16,18:16:16,2.0.10.248,1,1,1,1,M1,List1,3,3,1,3,NULL,NULL,NULL,b1,BlockList1,63,28,2,63,w,NULL,NULL,NULL,NULL,NULL,NULL,NULL,NULL,NULL,TrialProc4,b1trails1,red,e,1,w,489
Individual,4,1,"<?xml version=""1.0""?>\n<Clock xmlns:dt=""urn:schemas-microsoft-com:datatypes""><Description dt:dt=""string"">E-Prime Primary Realtime Clock</Description><StartTime><Timestamp dt:dt=""int"">0</Timestamp><DateUtc dt:dt=""string"">2017-10-10T17:16:16Z</DateUtc></StartTime><FrequencyChanges><FrequencyChange><Frequency dt:dt=""r8"">2923154</Frequency><Timestamp dt:dt=""r8"">320799132749</Timestamp><Current dt:dt=""r8"">0</Current><DateUtc dt:dt=""string"">2017-10-10T17:16:16Z</DateUtc></FrequencyChange></FrequencyChanges></Clock>\n",Individual-004-1,59.955,?,1.0.0.478,1,-1322845622,Professional,2.0.10.353,2.0.10.353,10/10/2017,10/10/2017 17:16,18:16:16,2.0.10.248,1,1,1,1,M1,List1,3,3,1,3,NULL,NULL,NULL,b1,BlockList1,64,93,2,64,e,NULL,NULL,NULL,NULL,NULL,NULL,NULL,NULL,NULL,TrialProc4,b1trails1,blue,e,1,e,531
Individual,4,1,"<?xml version=""1.0""?>\n<Clock xmlns:dt=""urn:schemas-microsoft-com:datatypes""><Description dt:dt=""string"">E-Prime Primary Realtime Clock</Description><StartTime><Timestamp dt:dt=""int"">0</Timestamp><DateUtc dt:dt=""string"">2017-10-10T17:16:16Z</DateUtc></StartTime><FrequencyChanges><FrequencyChange><Frequency dt:dt=""r8"">2923154</Frequency><Timestamp dt:dt=""r8"">320799132749</Timestamp><Current dt:dt=""r8"">0</Current><DateUtc dt:dt=""string"">2017-10-10T17:16:16Z</DateUtc></FrequencyChange></FrequencyChanges></Clock>\n",Individual-004-1,59.955,?,1.0.0.478,1,-1322845622,Professional,2.0.10.353,2.0.10.353,10/10/2017,10/10/2017 17:16,18:16:16,2.0.10.248,1,1,1,1,M1,List1,3,3,1,3,NULL,NULL,NULL,b1,BlockList1,65,88,2,65,w,NULL,NULL,NULL,NULL,NULL,NULL,NULL,NULL,NULL,TrialProc4,b1trails1,red,e,1,w,505
Individual,4,1,"<?xml version=""1.0""?>\n<Clock xmlns:dt=""urn:schemas-microsoft-com:datatypes""><Description dt:dt=""string"">E-Prime Primary Realtime Clock</Description><StartTime><Timestamp dt:dt=""int"">0</Timestamp><DateUtc dt:dt=""string"">2017-10-10T17:16:16Z</DateUtc></StartTime><FrequencyChanges><FrequencyChange><Frequency dt:dt=""r8"">2923154</Frequency><Timestamp dt:dt=""r8"">320799132749</Timestamp><Current dt:dt=""r8"">0</Current><DateUtc dt:dt=""string"">2017-10-10T17:16:16Z</DateUtc></FrequencyChange></FrequencyChanges></Clock>\n",Individual-004-1,59.955,?,1.0.0.478,1,-1322845622,Professional,2.0.10.353,2.0.10.353,10/10/2017,10/10/2017 17:16,18:16:16,2.0.10.248,1,1,1,1,M1,List1,3,3,1,3,NULL,NULL,NULL,b1,BlockList1,66,3,2,66,w,NULL,NULL,NULL,NULL,NULL,NULL,NULL,NULL,NULL,TrialProc4,b1trails1,red,w,1,w,655
Individual,4,1,"<?xml version=""1.0""?>\n<Clock xmlns:dt=""urn:schemas-microsoft-com:datatypes""><Description dt:dt=""string"">E-Prime Primary Realtime Clock</Description><StartTime><Timestamp dt:dt=""int"">0</Timestamp><DateUtc dt:dt=""string"">2017-10-10T17:16:16Z</DateUtc></StartTime><FrequencyChanges><FrequencyChange><Frequency dt:dt=""r8"">2923154</Frequency><Timestamp dt:dt=""r8"">320799132749</Timestamp><Current dt:dt=""r8"">0</Current><DateUtc dt:dt=""string"">2017-10-10T17:16:16Z</DateUtc></FrequencyChange></FrequencyChanges></Clock>\n",Individual-004-1,59.955,?,1.0.0.478,1,-1322845622,Professional,2.0.10.353,2.0.10.353,10/10/2017,10/10/2017 17:16,18:16:16,2.0.10.248,1,1,1,1,M1,List1,3,3,1,3,NULL,NULL,NULL,b1,BlockList1,67,4,2,67,w,NULL,NULL,NULL,NULL,NULL,NULL,NULL,NULL,NULL,TrialProc4,b1trails1,red,e,1,w,699
Individual,4,1,"<?xml version=""1.0""?>\n<Clock xmlns:dt=""urn:schemas-microsoft-com:datatypes""><Description dt:dt=""string"">E-Prime Primary Realtime Clock</Description><StartTime><Timestamp dt:dt=""int"">0</Timestamp><DateUtc dt:dt=""string"">2017-10-10T17:16:16Z</DateUtc></StartTime><FrequencyChanges><FrequencyChange><Frequency dt:dt=""r8"">2923154</Frequency><Timestamp dt:dt=""r8"">320799132749</Timestamp><Current dt:dt=""r8"">0</Current><DateUtc dt:dt=""string"">2017-10-10T17:16:16Z</DateUtc></FrequencyChange></FrequencyChanges></Clock>\n",Individual-004-1,59.955,?,1.0.0.478,1,-1322845622,Professional,2.0.10.353,2.0.10.353,10/10/2017,10/10/2017 17:16,18:16:16,2.0.10.248,1,1,1,1,M1,List1,3,3,1,3,NULL,NULL,NULL,b1,BlockList1,68,92,2,68,w,NULL,NULL,NULL,NULL,NULL,NULL,NULL,NULL,NULL,TrialProc4,b1trails1,red,e,1,w,458
Individual,4,1,"<?xml version=""1.0""?>\n<Clock xmlns:dt=""urn:schemas-microsoft-com:datatypes""><Description dt:dt=""string"">E-Prime Primary Realtime Clock</Description><StartTime><Timestamp dt:dt=""int"">0</Timestamp><DateUtc dt:dt=""string"">2017-10-10T17:16:16Z</DateUtc></StartTime><FrequencyChanges><FrequencyChange><Frequency dt:dt=""r8"">2923154</Frequency><Timestamp dt:dt=""r8"">320799132749</Timestamp><Current dt:dt=""r8"">0</Current><DateUtc dt:dt=""string"">2017-10-10T17:16:16Z</DateUtc></FrequencyChange></FrequencyChanges></Clock>\n",Individual-004-1,59.955,?,1.0.0.478,1,-1322845622,Professional,2.0.10.353,2.0.10.353,10/10/2017,10/10/2017 17:16,18:16:16,2.0.10.248,1,1,1,1,M1,List1,3,3,1,3,NULL,NULL,NULL,b1,BlockList1,69,96,2,69,w,NULL,NULL,NULL,NULL,NULL,NULL,NULL,NULL,NULL,TrialProc4,b1trails1,red,e,1,w,400
Individual,4,1,"<?xml version=""1.0""?>\n<Clock xmlns:dt=""urn:schemas-microsoft-com:datatypes""><Description dt:dt=""string"">E-Prime Primary Realtime Clock</Description><StartTime><Timestamp dt:dt=""int"">0</Timestamp><DateUtc dt:dt=""string"">2017-10-10T17:16:16Z</DateUtc></StartTime><FrequencyChanges><FrequencyChange><Frequency dt:dt=""r8"">2923154</Frequency><Timestamp dt:dt=""r8"">320799132749</Timestamp><Current dt:dt=""r8"">0</Current><DateUtc dt:dt=""string"">2017-10-10T17:16:16Z</DateUtc></FrequencyChange></FrequencyChanges></Clock>\n",Individual-004-1,59.955,?,1.0.0.478,1,-1322845622,Professional,2.0.10.353,2.0.10.353,10/10/2017,10/10/2017 17:16,18:16:16,2.0.10.248,1,1,1,1,M1,List1,3,3,1,3,NULL,NULL,NULL,b1,BlockList1,70,68,2,70,w,NULL,NULL,NULL,NULL,NULL,NULL,NULL,NULL,NULL,TrialProc4,b1trails1,red,e,1,w,579
Individual,4,1,"<?xml version=""1.0""?>\n<Clock xmlns:dt=""urn:schemas-microsoft-com:datatypes""><Description dt:dt=""string"">E-Prime Primary Realtime Clock</Description><StartTime><Timestamp dt:dt=""int"">0</Timestamp><DateUtc dt:dt=""string"">2017-10-10T17:16:16Z</DateUtc></StartTime><FrequencyChanges><FrequencyChange><Frequency dt:dt=""r8"">2923154</Frequency><Timestamp dt:dt=""r8"">320799132749</Timestamp><Current dt:dt=""r8"">0</Current><DateUtc dt:dt=""string"">2017-10-10T17:16:16Z</DateUtc></FrequencyChange></FrequencyChanges></Clock>\n",Individual-004-1,59.955,?,1.0.0.478,1,-1322845622,Professional,2.0.10.353,2.0.10.353,10/10/2017,10/10/2017 17:16,18:16:16,2.0.10.248,1,1,1,1,M1,List1,3,3,1,3,NULL,NULL,NULL,b1,BlockList1,71,47,2,71,w,NULL,NULL,NULL,NULL,NULL,NULL,NULL,NULL,NULL,TrialProc4,b1trails1,red,w,1,w,610
Individual,4,1,"<?xml version=""1.0""?>\n<Clock xmlns:dt=""urn:schemas-microsoft-com:datatypes""><Description dt:dt=""string"">E-Prime Primary Realtime Clock</Description><StartTime><Timestamp dt:dt=""int"">0</Timestamp><DateUtc dt:dt=""string"">2017-10-10T17:16:16Z</DateUtc></StartTime><FrequencyChanges><FrequencyChange><Frequency dt:dt=""r8"">2923154</Frequency><Timestamp dt:dt=""r8"">320799132749</Timestamp><Current dt:dt=""r8"">0</Current><DateUtc dt:dt=""string"">2017-10-10T17:16:16Z</DateUtc></FrequencyChange></FrequencyChanges></Clock>\n",Individual-004-1,59.955,?,1.0.0.478,1,-1322845622,Professional,2.0.10.353,2.0.10.353,10/10/2017,10/10/2017 17:16,18:16:16,2.0.10.248,1,1,1,1,M1,List1,3,3,1,3,NULL,NULL,NULL,b1,BlockList1,72,38,2,72,e,NULL,NULL,NULL,NULL,NULL,NULL,NULL,NULL,NULL,TrialProc4,b1trails1,blue,w,1,e,733
Individual,4,1,"<?xml version=""1.0""?>\n<Clock xmlns:dt=""urn:schemas-microsoft-com:datatypes""><Description dt:dt=""string"">E-Prime Primary Realtime Clock</Description><StartTime><Timestamp dt:dt=""int"">0</Timestamp><DateUtc dt:dt=""string"">2017-10-10T17:16:16Z</DateUtc></StartTime><FrequencyChanges><FrequencyChange><Frequency dt:dt=""r8"">2923154</Frequency><Timestamp dt:dt=""r8"">320799132749</Timestamp><Current dt:dt=""r8"">0</Current><DateUtc dt:dt=""string"">2017-10-10T17:16:16Z</DateUtc></FrequencyChange></FrequencyChanges></Clock>\n",Individual-004-1,59.955,?,1.0.0.478,1,-1322845622,Professional,2.0.10.353,2.0.10.353,10/10/2017,10/10/2017 17:16,18:16:16,2.0.10.248,1,1,1,1,M1,List1,3,3,1,3,NULL,NULL,NULL,b1,BlockList1,73,46,2,73,e,NULL,NULL,NULL,NULL,NULL,NULL,NULL,NULL,NULL,TrialProc4,b1trails1,blue,w,1,e,407
Individual,4,1,"<?xml version=""1.0""?>\n<Clock xmlns:dt=""urn:schemas-microsoft-com:datatypes""><Description dt:dt=""string"">E-Prime Primary Realtime Clock</Description><StartTime><Timestamp dt:dt=""int"">0</Timestamp><DateUtc dt:dt=""string"">2017-10-10T17:16:16Z</DateUtc></StartTime><FrequencyChanges><FrequencyChange><Frequency dt:dt=""r8"">2923154</Frequency><Timestamp dt:dt=""r8"">320799132749</Timestamp><Current dt:dt=""r8"">0</Current><DateUtc dt:dt=""string"">2017-10-10T17:16:16Z</DateUtc></FrequencyChange></FrequencyChanges></Clock>\n",Individual-004-1,59.955,?,1.0.0.478,1,-1322845622,Professional,2.0.10.353,2.0.10.353,10/10/2017,10/10/2017 17:16,18:16:16,2.0.10.248,1,1,1,1,M1,List1,3,3,1,3,NULL,NULL,NULL,b1,BlockList1,74,67,2,74,w,NULL,NULL,NULL,NULL,NULL,NULL,NULL,NULL,NULL,TrialProc4,b1trails1,red,w,1,w,486
Individual,4,1,"<?xml version=""1.0""?>\n<Clock xmlns:dt=""urn:schemas-microsoft-com:datatypes""><Description dt:dt=""string"">E-Prime Primary Realtime Clock</Description><StartTime><Timestamp dt:dt=""int"">0</Timestamp><DateUtc dt:dt=""string"">2017-10-10T17:16:16Z</DateUtc></StartTime><FrequencyChanges><FrequencyChange><Frequency dt:dt=""r8"">2923154</Frequency><Timestamp dt:dt=""r8"">320799132749</Timestamp><Current dt:dt=""r8"">0</Current><DateUtc dt:dt=""string"">2017-10-10T17:16:16Z</DateUtc></FrequencyChange></FrequencyChanges></Clock>\n",Individual-004-1,59.955,?,1.0.0.478,1,-1322845622,Professional,2.0.10.353,2.0.10.353,10/10/2017,10/10/2017 17:16,18:16:16,2.0.10.248,1,1,1,1,M1,List1,3,3,1,3,NULL,NULL,NULL,b1,BlockList1,75,40,2,75,w,NULL,NULL,NULL,NULL,NULL,NULL,NULL,NULL,NULL,TrialProc4,b1trails1,red,e,1,w,429
Individual,4,1,"<?xml version=""1.0""?>\n<Clock xmlns:dt=""urn:schemas-microsoft-com:datatypes""><Description dt:dt=""string"">E-Prime Primary Realtime Clock</Description><StartTime><Timestamp dt:dt=""int"">0</Timestamp><DateUtc dt:dt=""string"">2017-10-10T17:16:16Z</DateUtc></StartTime><FrequencyChanges><FrequencyChange><Frequency dt:dt=""r8"">2923154</Frequency><Timestamp dt:dt=""r8"">320799132749</Timestamp><Current dt:dt=""r8"">0</Current><DateUtc dt:dt=""string"">2017-10-10T17:16:16Z</DateUtc></FrequencyChange></FrequencyChanges></Clock>\n",Individual-004-1,59.955,?,1.0.0.478,1,-1322845622,Professional,2.0.10.353,2.0.10.353,10/10/2017,10/10/2017 17:16,18:16:16,2.0.10.248,1,1,1,1,M1,List1,3,3,1,3,NULL,NULL,NULL,b1,BlockList1,76,57,2,76,e,NULL,NULL,NULL,NULL,NULL,NULL,NULL,NULL,NULL,TrialProc4,b1trails1,blue,e,1,e,536
Individual,4,1,"<?xml version=""1.0""?>\n<Clock xmlns:dt=""urn:schemas-microsoft-com:datatypes""><Description dt:dt=""string"">E-Prime Primary Realtime Clock</Description><StartTime><Timestamp dt:dt=""int"">0</Timestamp><DateUtc dt:dt=""string"">2017-10-10T17:16:16Z</DateUtc></StartTime><FrequencyChanges><FrequencyChange><Frequency dt:dt=""r8"">2923154</Frequency><Timestamp dt:dt=""r8"">320799132749</Timestamp><Current dt:dt=""r8"">0</Current><DateUtc dt:dt=""string"">2017-10-10T17:16:16Z</DateUtc></FrequencyChange></FrequencyChanges></Clock>\n",Individual-004-1,59.955,?,1.0.0.478,1,-1322845622,Professional,2.0.10.353,2.0.10.353,10/10/2017,10/10/2017 17:16,18:16:16,2.0.10.248,1,1,1,1,M1,List1,3,3,1,3,NULL,NULL,NULL,b1,BlockList1,77,50,2,77,e,NULL,NULL,NULL,NULL,NULL,NULL,NULL,NULL,NULL,TrialProc4,b1trails1,blue,w,1,e,1009
Individual,4,1,"<?xml version=""1.0""?>\n<Clock xmlns:dt=""urn:schemas-microsoft-com:datatypes""><Description dt:dt=""string"">E-Prime Primary Realtime Clock</Description><StartTime><Timestamp dt:dt=""int"">0</Timestamp><DateUtc dt:dt=""string"">2017-10-10T17:16:16Z</DateUtc></StartTime><FrequencyChanges><FrequencyChange><Frequency dt:dt=""r8"">2923154</Frequency><Timestamp dt:dt=""r8"">320799132749</Timestamp><Current dt:dt=""r8"">0</Current><DateUtc dt:dt=""string"">2017-10-10T17:16:16Z</DateUtc></FrequencyChange></FrequencyChanges></Clock>\n",Individual-004-1,59.955,?,1.0.0.478,1,-1322845622,Professional,2.0.10.353,2.0.10.353,10/10/2017,10/10/2017 17:16,18:16:16,2.0.10.248,1,1,1,1,M1,List1,3,3,1,3,NULL,NULL,NULL,b1,BlockList1,78,15,2,78,w,NULL,NULL,NULL,NULL,NULL,NULL,NULL,NULL,NULL,TrialProc4,b1trails1,red,w,1,w,672
Individual,4,1,"<?xml version=""1.0""?>\n<Clock xmlns:dt=""urn:schemas-microsoft-com:datatypes""><Description dt:dt=""string"">E-Prime Primary Realtime Clock</Description><StartTime><Timestamp dt:dt=""int"">0</Timestamp><DateUtc dt:dt=""string"">2017-10-10T17:16:16Z</DateUtc></StartTime><FrequencyChanges><FrequencyChange><Frequency dt:dt=""r8"">2923154</Frequency><Timestamp dt:dt=""r8"">320799132749</Timestamp><Current dt:dt=""r8"">0</Current><DateUtc dt:dt=""string"">2017-10-10T17:16:16Z</DateUtc></FrequencyChange></FrequencyChanges></Clock>\n",Individual-004-1,59.955,?,1.0.0.478,1,-1322845622,Professional,2.0.10.353,2.0.10.353,10/10/2017,10/10/2017 17:16,18:16:16,2.0.10.248,1,1,1,1,M1,List1,3,3,1,3,NULL,NULL,NULL,b1,BlockList1,79,52,2,79,w,NULL,NULL,NULL,NULL,NULL,NULL,NULL,NULL,NULL,TrialProc4,b1trails1,red,e,1,w,1106
Individual,4,1,"<?xml version=""1.0""?>\n<Clock xmlns:dt=""urn:schemas-microsoft-com:datatypes""><Description dt:dt=""string"">E-Prime Primary Realtime Clock</Description><StartTime><Timestamp dt:dt=""int"">0</Timestamp><DateUtc dt:dt=""string"">2017-10-10T17:16:16Z</DateUtc></StartTime><FrequencyChanges><FrequencyChange><Frequency dt:dt=""r8"">2923154</Frequency><Timestamp dt:dt=""r8"">320799132749</Timestamp><Current dt:dt=""r8"">0</Current><DateUtc dt:dt=""string"">2017-10-10T17:16:16Z</DateUtc></FrequencyChange></FrequencyChanges></Clock>\n",Individual-004-1,59.955,?,1.0.0.478,1,-1322845622,Professional,2.0.10.353,2.0.10.353,10/10/2017,10/10/2017 17:16,18:16:16,2.0.10.248,1,1,1,1,M1,List1,3,3,1,3,NULL,NULL,NULL,b1,BlockList1,80,14,2,80,e,NULL,NULL,NULL,NULL,NULL,NULL,NULL,NULL,NULL,TrialProc4,b1trails1,blue,w,1,e,1137
Individual,4,1,"<?xml version=""1.0""?>\n<Clock xmlns:dt=""urn:schemas-microsoft-com:datatypes""><Description dt:dt=""string"">E-Prime Primary Realtime Clock</Description><StartTime><Timestamp dt:dt=""int"">0</Timestamp><DateUtc dt:dt=""string"">2017-10-10T17:16:16Z</DateUtc></StartTime><FrequencyChanges><FrequencyChange><Frequency dt:dt=""r8"">2923154</Frequency><Timestamp dt:dt=""r8"">320799132749</Timestamp><Current dt:dt=""r8"">0</Current><DateUtc dt:dt=""string"">2017-10-10T17:16:16Z</DateUtc></FrequencyChange></FrequencyChanges></Clock>\n",Individual-004-1,59.955,?,1.0.0.478,1,-1322845622,Professional,2.0.10.353,2.0.10.353,10/10/2017,10/10/2017 17:16,18:16:16,2.0.10.248,1,1,1,1,M1,List1,3,3,1,3,NULL,NULL,NULL,b1,BlockList1,81,5,2,81,e,NULL,NULL,NULL,NULL,NULL,NULL,NULL,NULL,NULL,TrialProc4,b1trails1,blue,e,1,e,651
Individual,4,1,"<?xml version=""1.0""?>\n<Clock xmlns:dt=""urn:schemas-microsoft-com:datatypes""><Description dt:dt=""string"">E-Prime Primary Realtime Clock</Description><StartTime><Timestamp dt:dt=""int"">0</Timestamp><DateUtc dt:dt=""string"">2017-10-10T17:16:16Z</DateUtc></StartTime><FrequencyChanges><FrequencyChange><Frequency dt:dt=""r8"">2923154</Frequency><Timestamp dt:dt=""r8"">320799132749</Timestamp><Current dt:dt=""r8"">0</Current><DateUtc dt:dt=""string"">2017-10-10T17:16:16Z</DateUtc></FrequencyChange></FrequencyChanges></Clock>\n",Individual-004-1,59.955,?,1.0.0.478,1,-1322845622,Professional,2.0.10.353,2.0.10.353,10/10/2017,10/10/2017 17:16,18:16:16,2.0.10.248,1,1,1,1,M1,List1,3,3,1,3,NULL,NULL,NULL,b1,BlockList1,82,66,2,82,e,NULL,NULL,NULL,NULL,NULL,NULL,NULL,NULL,NULL,TrialProc4,b1trails1,blue,w,1,e,454
Individual,4,1,"<?xml version=""1.0""?>\n<Clock xmlns:dt=""urn:schemas-microsoft-com:datatypes""><Description dt:dt=""string"">E-Prime Primary Realtime Clock</Description><StartTime><Timestamp dt:dt=""int"">0</Timestamp><DateUtc dt:dt=""string"">2017-10-10T17:16:16Z</DateUtc></StartTime><FrequencyChanges><FrequencyChange><Frequency dt:dt=""r8"">2923154</Frequency><Timestamp dt:dt=""r8"">320799132749</Timestamp><Current dt:dt=""r8"">0</Current><DateUtc dt:dt=""string"">2017-10-10T17:16:16Z</DateUtc></FrequencyChange></FrequencyChanges></Clock>\n",Individual-004-1,59.955,?,1.0.0.478,1,-1322845622,Professional,2.0.10.353,2.0.10.353,10/10/2017,10/10/2017 17:16,18:16:16,2.0.10.248,1,1,1,1,M1,List1,3,3,1,3,NULL,NULL,NULL,b1,BlockList1,83,27,2,83,w,NULL,NULL,NULL,NULL,NULL,NULL,NULL,NULL,NULL,TrialProc4,b1trails1,red,w,1,w,508
Individual,4,1,"<?xml version=""1.0""?>\n<Clock xmlns:dt=""urn:schemas-microsoft-com:datatypes""><Description dt:dt=""string"">E-Prime Primary Realtime Clock</Description><StartTime><Timestamp dt:dt=""int"">0</Timestamp><DateUtc dt:dt=""string"">2017-10-10T17:16:16Z</DateUtc></StartTime><FrequencyChanges><FrequencyChange><Frequency dt:dt=""r8"">2923154</Frequency><Timestamp dt:dt=""r8"">320799132749</Timestamp><Current dt:dt=""r8"">0</Current><DateUtc dt:dt=""string"">2017-10-10T17:16:16Z</DateUtc></FrequencyChange></FrequencyChanges></Clock>\n",Individual-004-1,59.955,?,1.0.0.478,1,-1322845622,Professional,2.0.10.353,2.0.10.353,10/10/2017,10/10/2017 17:16,18:16:16,2.0.10.248,1,1,1,1,M1,List1,3,3,1,3,NULL,NULL,NULL,b1,BlockList1,84,18,2,84,e,NULL,NULL,NULL,NULL,NULL,NULL,NULL,NULL,NULL,TrialProc4,b1trails1,blue,w,1,e,542
Individual,4,1,"<?xml version=""1.0""?>\n<Clock xmlns:dt=""urn:schemas-microsoft-com:datatypes""><Description dt:dt=""string"">E-Prime Primary Realtime Clock</Description><StartTime><Timestamp dt:dt=""int"">0</Timestamp><DateUtc dt:dt=""string"">2017-10-10T17:16:16Z</DateUtc></StartTime><FrequencyChanges><FrequencyChange><Frequency dt:dt=""r8"">2923154</Frequency><Timestamp dt:dt=""r8"">320799132749</Timestamp><Current dt:dt=""r8"">0</Current><DateUtc dt:dt=""string"">2017-10-10T17:16:16Z</DateUtc></FrequencyChange></FrequencyChanges></Clock>\n",Individual-004-1,59.955,?,1.0.0.478,1,-1322845622,Professional,2.0.10.353,2.0.10.353,10/10/2017,10/10/2017 17:16,18:16:16,2.0.10.248,1,1,1,1,M1,List1,3,3,1,3,NULL,NULL,NULL,b1,BlockList1,85,37,2,85,e,NULL,NULL,NULL,NULL,NULL,NULL,NULL,NULL,NULL,TrialProc4,b1trails1,blue,e,1,e,436
Individual,4,1,"<?xml version=""1.0""?>\n<Clock xmlns:dt=""urn:schemas-microsoft-com:datatypes""><Description dt:dt=""string"">E-Prime Primary Realtime Clock</Description><StartTime><Timestamp dt:dt=""int"">0</Timestamp><DateUtc dt:dt=""string"">2017-10-10T17:16:16Z</DateUtc></StartTime><FrequencyChanges><FrequencyChange><Frequency dt:dt=""r8"">2923154</Frequency><Timestamp dt:dt=""r8"">320799132749</Timestamp><Current dt:dt=""r8"">0</Current><DateUtc dt:dt=""string"">2017-10-10T17:16:16Z</DateUtc></FrequencyChange></FrequencyChanges></Clock>\n",Individual-004-1,59.955,?,1.0.0.478,1,-1322845622,Professional,2.0.10.353,2.0.10.353,10/10/2017,10/10/2017 17:16,18:16:16,2.0.10.248,1,1,1,1,M1,List1,3,3,1,3,NULL,NULL,NULL,b1,BlockList1,86,6,2,86,e,NULL,NULL,NULL,NULL,NULL,NULL,NULL,NULL,NULL,TrialProc4,b1trails1,blue,w,1,e,555
Individual,4,1,"<?xml version=""1.0""?>\n<Clock xmlns:dt=""urn:schemas-microsoft-com:datatypes""><Description dt:dt=""string"">E-Prime Primary Realtime Clock</Description><StartTime><Timestamp dt:dt=""int"">0</Timestamp><DateUtc dt:dt=""string"">2017-10-10T17:16:16Z</DateUtc></StartTime><FrequencyChanges><FrequencyChange><Frequency dt:dt=""r8"">2923154</Frequency><Timestamp dt:dt=""r8"">320799132749</Timestamp><Current dt:dt=""r8"">0</Current><DateUtc dt:dt=""string"">2017-10-10T17:16:16Z</DateUtc></FrequencyChange></FrequencyChanges></Clock>\n",Individual-004-1,59.955,?,1.0.0.478,1,-1322845622,Professional,2.0.10.353,2.0.10.353,10/10/2017,10/10/2017 17:16,18:16:16,2.0.10.248,1,1,1,1,M1,List1,3,3,1,3,NULL,NULL,NULL,b1,BlockList1,87,51,2,87,w,NULL,NULL,NULL,NULL,NULL,NULL,NULL,NULL,NULL,TrialProc4,b1trails1,red,w,1,w,468
Individual,4,1,"<?xml version=""1.0""?>\n<Clock xmlns:dt=""urn:schemas-microsoft-com:datatypes""><Description dt:dt=""string"">E-Prime Primary Realtime Clock</Description><StartTime><Timestamp dt:dt=""int"">0</Timestamp><DateUtc dt:dt=""string"">2017-10-10T17:16:16Z</DateUtc></StartTime><FrequencyChanges><FrequencyChange><Frequency dt:dt=""r8"">2923154</Frequency><Timestamp dt:dt=""r8"">320799132749</Timestamp><Current dt:dt=""r8"">0</Current><DateUtc dt:dt=""string"">2017-10-10T17:16:16Z</DateUtc></FrequencyChange></FrequencyChanges></Clock>\n",Individual-004-1,59.955,?,1.0.0.478,1,-1322845622,Professional,2.0.10.353,2.0.10.353,10/10/2017,10/10/2017 17:16,18:16:16,2.0.10.248,1,1,1,1,M1,List1,3,3,1,3,NULL,NULL,NULL,b1,BlockList1,88,86,2,88,e,NULL,NULL,NULL,NULL,NULL,NULL,NULL,NULL,NULL,TrialProc4,b1trails1,blue,w,1,e,556
Individual,4,1,"<?xml version=""1.0""?>\n<Clock xmlns:dt=""urn:schemas-microsoft-com:datatypes""><Description dt:dt=""string"">E-Prime Primary Realtime Clock</Description><StartTime><Timestamp dt:dt=""int"">0</Timestamp><DateUtc dt:dt=""string"">2017-10-10T17:16:16Z</DateUtc></StartTime><FrequencyChanges><FrequencyChange><Frequency dt:dt=""r8"">2923154</Frequency><Timestamp dt:dt=""r8"">320799132749</Timestamp><Current dt:dt=""r8"">0</Current><DateUtc dt:dt=""string"">2017-10-10T17:16:16Z</DateUtc></FrequencyChange></FrequencyChanges></Clock>\n",Individual-004-1,59.955,?,1.0.0.478,1,-1322845622,Professional,2.0.10.353,2.0.10.353,10/10/2017,10/10/2017 17:16,18:16:16,2.0.10.248,1,1,1,1,M1,List1,3,3,1,3,NULL,NULL,NULL,b1,BlockList1,89,78,2,89,e,NULL,NULL,NULL,NULL,NULL,NULL,NULL,NULL,NULL,TrialProc4,b1trails1,blue,w,1,e,489
Individual,4,1,"<?xml version=""1.0""?>\n<Clock xmlns:dt=""urn:schemas-microsoft-com:datatypes""><Description dt:dt=""string"">E-Prime Primary Realtime Clock</Description><StartTime><Timestamp dt:dt=""int"">0</Timestamp><DateUtc dt:dt=""string"">2017-10-10T17:16:16Z</DateUtc></StartTime><FrequencyChanges><FrequencyChange><Frequency dt:dt=""r8"">2923154</Frequency><Timestamp dt:dt=""r8"">320799132749</Timestamp><Current dt:dt=""r8"">0</Current><DateUtc dt:dt=""string"">2017-10-10T17:16:16Z</DateUtc></FrequencyChange></FrequencyChanges></Clock>\n",Individual-004-1,59.955,?,1.0.0.478,1,-1322845622,Professional,2.0.10.353,2.0.10.353,10/10/2017,10/10/2017 17:16,18:16:16,2.0.10.248,1,1,1,1,M1,List1,3,3,1,3,NULL,NULL,NULL,b1,BlockList1,90,17,2,90,e,NULL,NULL,NULL,NULL,NULL,NULL,NULL,NULL,NULL,TrialProc4,b1trails1,blue,e,1,e,492
Individual,4,1,"<?xml version=""1.0""?>\n<Clock xmlns:dt=""urn:schemas-microsoft-com:datatypes""><Description dt:dt=""string"">E-Prime Primary Realtime Clock</Description><StartTime><Timestamp dt:dt=""int"">0</Timestamp><DateUtc dt:dt=""string"">2017-10-10T17:16:16Z</DateUtc></StartTime><FrequencyChanges><FrequencyChange><Frequency dt:dt=""r8"">2923154</Frequency><Timestamp dt:dt=""r8"">320799132749</Timestamp><Current dt:dt=""r8"">0</Current><DateUtc dt:dt=""string"">2017-10-10T17:16:16Z</DateUtc></FrequencyChange></FrequencyChanges></Clock>\n",Individual-004-1,59.955,?,1.0.0.478,1,-1322845622,Professional,2.0.10.353,2.0.10.353,10/10/2017,10/10/2017 17:16,18:16:16,2.0.10.248,1,1,1,1,M1,List1,3,3,1,3,NULL,NULL,NULL,b1,BlockList1,91,74,2,91,e,NULL,NULL,NULL,NULL,NULL,NULL,NULL,NULL,NULL,TrialProc4,b1trails1,blue,w,1,e,691
Individual,4,1,"<?xml version=""1.0""?>\n<Clock xmlns:dt=""urn:schemas-microsoft-com:datatypes""><Description dt:dt=""string"">E-Prime Primary Realtime Clock</Description><StartTime><Timestamp dt:dt=""int"">0</Timestamp><DateUtc dt:dt=""string"">2017-10-10T17:16:16Z</DateUtc></StartTime><FrequencyChanges><FrequencyChange><Frequency dt:dt=""r8"">2923154</Frequency><Timestamp dt:dt=""r8"">320799132749</Timestamp><Current dt:dt=""r8"">0</Current><DateUtc dt:dt=""string"">2017-10-10T17:16:16Z</DateUtc></FrequencyChange></FrequencyChanges></Clock>\n",Individual-004-1,59.955,?,1.0.0.478,1,-1322845622,Professional,2.0.10.353,2.0.10.353,10/10/2017,10/10/2017 17:16,18:16:16,2.0.10.248,1,1,1,1,M1,List1,3,3,1,3,NULL,NULL,NULL,b1,BlockList1,92,49,2,92,e,NULL,NULL,NULL,NULL,NULL,NULL,NULL,NULL,NULL,TrialProc4,b1trails1,blue,e,1,e,590
Individual,4,1,"<?xml version=""1.0""?>\n<Clock xmlns:dt=""urn:schemas-microsoft-com:datatypes""><Description dt:dt=""string"">E-Prime Primary Realtime Clock</Description><StartTime><Timestamp dt:dt=""int"">0</Timestamp><DateUtc dt:dt=""string"">2017-10-10T17:16:16Z</DateUtc></StartTime><FrequencyChanges><FrequencyChange><Frequency dt:dt=""r8"">2923154</Frequency><Timestamp dt:dt=""r8"">320799132749</Timestamp><Current dt:dt=""r8"">0</Current><DateUtc dt:dt=""string"">2017-10-10T17:16:16Z</DateUtc></FrequencyChange></FrequencyChanges></Clock>\n",Individual-004-1,59.955,?,1.0.0.478,1,-1322845622,Professional,2.0.10.353,2.0.10.353,10/10/2017,10/10/2017 17:16,18:16:16,2.0.10.248,1,1,1,1,M1,List1,3,3,1,3,NULL,NULL,NULL,b1,BlockList1,93,77,2,93,e,NULL,NULL,NULL,NULL,NULL,NULL,NULL,NULL,NULL,TrialProc4,b1trails1,blue,e,1,e,452
Individual,4,1,"<?xml version=""1.0""?>\n<Clock xmlns:dt=""urn:schemas-microsoft-com:datatypes""><Description dt:dt=""string"">E-Prime Primary Realtime Clock</Description><StartTime><Timestamp dt:dt=""int"">0</Timestamp><DateUtc dt:dt=""string"">2017-10-10T17:16:16Z</DateUtc></StartTime><FrequencyChanges><FrequencyChange><Frequency dt:dt=""r8"">2923154</Frequency><Timestamp dt:dt=""r8"">320799132749</Timestamp><Current dt:dt=""r8"">0</Current><DateUtc dt:dt=""string"">2017-10-10T17:16:16Z</DateUtc></FrequencyChange></FrequencyChanges></Clock>\n",Individual-004-1,59.955,?,1.0.0.478,1,-1322845622,Professional,2.0.10.353,2.0.10.353,10/10/2017,10/10/2017 17:16,18:16:16,2.0.10.248,1,1,1,1,M1,List1,3,3,1,3,NULL,NULL,NULL,b1,BlockList1,94,29,2,94,e,NULL,NULL,NULL,NULL,NULL,NULL,NULL,NULL,NULL,TrialProc4,b1trails1,blue,e,1,e,404
Individual,4,1,"<?xml version=""1.0""?>\n<Clock xmlns:dt=""urn:schemas-microsoft-com:datatypes""><Description dt:dt=""string"">E-Prime Primary Realtime Clock</Description><StartTime><Timestamp dt:dt=""int"">0</Timestamp><DateUtc dt:dt=""string"">2017-10-10T17:16:16Z</DateUtc></StartTime><FrequencyChanges><FrequencyChange><Frequency dt:dt=""r8"">2923154</Frequency><Timestamp dt:dt=""r8"">320799132749</Timestamp><Current dt:dt=""r8"">0</Current><DateUtc dt:dt=""string"">2017-10-10T17:16:16Z</DateUtc></FrequencyChange></FrequencyChanges></Clock>\n",Individual-004-1,59.955,?,1.0.0.478,1,-1322845622,Professional,2.0.10.353,2.0.10.353,10/10/2017,10/10/2017 17:16,18:16:16,2.0.10.248,1,1,1,1,M1,List1,3,3,1,3,NULL,NULL,NULL,b1,BlockList1,95,45,2,95,e,NULL,NULL,NULL,NULL,NULL,NULL,NULL,NULL,NULL,TrialProc4,b1trails1,blue,e,1,e,522
Individual,4,1,"<?xml version=""1.0""?>\n<Clock xmlns:dt=""urn:schemas-microsoft-com:datatypes""><Description dt:dt=""string"">E-Prime Primary Realtime Clock</Description><StartTime><Timestamp dt:dt=""int"">0</Timestamp><DateUtc dt:dt=""string"">2017-10-10T17:16:16Z</DateUtc></StartTime><FrequencyChanges><FrequencyChange><Frequency dt:dt=""r8"">2923154</Frequency><Timestamp dt:dt=""r8"">320799132749</Timestamp><Current dt:dt=""r8"">0</Current><DateUtc dt:dt=""string"">2017-10-10T17:16:16Z</DateUtc></FrequencyChange></FrequencyChanges></Clock>\n",Individual-004-1,59.955,?,1.0.0.478,1,-1322845622,Professional,2.0.10.353,2.0.10.353,10/10/2017,10/10/2017 17:16,18:16:16,2.0.10.248,1,1,1,1,M1,List1,3,3,1,3,NULL,NULL,NULL,b1,BlockList1,96,7,2,96,w,NULL,NULL,NULL,NULL,NULL,NULL,NULL,NULL,NULL,TrialProc4,b1trails1,red,w,1,w,595
Individual,4,1,"<?xml version=""1.0""?>\n<Clock xmlns:dt=""urn:schemas-microsoft-com:datatypes""><Description dt:dt=""string"">E-Prime Primary Realtime Clock</Description><StartTime><Timestamp dt:dt=""int"">0</Timestamp><DateUtc dt:dt=""string"">2017-10-10T17:16:16Z</DateUtc></StartTime><FrequencyChanges><FrequencyChange><Frequency dt:dt=""r8"">2923154</Frequency><Timestamp dt:dt=""r8"">320799132749</Timestamp><Current dt:dt=""r8"">0</Current><DateUtc dt:dt=""string"">2017-10-10T17:16:16Z</DateUtc></FrequencyChange></FrequencyChanges></Clock>\n",Individual-004-1,59.955,?,1.0.0.478,1,-1322845622,Professional,2.0.10.353,2.0.10.353,10/10/2017,10/10/2017 17:16,18:16:16,2.0.10.248,2,2,1,2,M2,List1,1,NULL,NULL,NULL,1,1,1,PracTrial2,BlockList2,1,NULL,NULL,NULL,w,NULL,NULL,NULL,NULL,NULL,NULL,5,2,1,TrialProc,PracTrials2,blue,e,1,w,1047
Individual,4,1,"<?xml version=""1.0""?>\n<Clock xmlns:dt=""urn:schemas-microsoft-com:datatypes""><Description dt:dt=""string"">E-Prime Primary Realtime Clock</Description><StartTime><Timestamp dt:dt=""int"">0</Timestamp><DateUtc dt:dt=""string"">2017-10-10T17:16:16Z</DateUtc></StartTime><FrequencyChanges><FrequencyChange><Frequency dt:dt=""r8"">2923154</Frequency><Timestamp dt:dt=""r8"">320799132749</Timestamp><Current dt:dt=""r8"">0</Current><DateUtc dt:dt=""string"">2017-10-10T17:16:16Z</DateUtc></FrequencyChange></FrequencyChanges></Clock>\n",Individual-004-1,59.955,?,1.0.0.478,1,-1322845622,Professional,2.0.10.353,2.0.10.353,10/10/2017,10/10/2017 17:16,18:16:16,2.0.10.248,2,2,1,2,M2,List1,1,NULL,NULL,NULL,1,1,1,PracTrial2,BlockList2,2,NULL,NULL,NULL,e,NULL,NULL,NULL,NULL,NULL,NULL,16,2,2,TrialProc,PracTrials2,red,e,1,e,424
Individual,4,1,"<?xml version=""1.0""?>\n<Clock xmlns:dt=""urn:schemas-microsoft-com:datatypes""><Description dt:dt=""string"">E-Prime Primary Realtime Clock</Description><StartTime><Timestamp dt:dt=""int"">0</Timestamp><DateUtc dt:dt=""string"">2017-10-10T17:16:16Z</DateUtc></StartTime><FrequencyChanges><FrequencyChange><Frequency dt:dt=""r8"">2923154</Frequency><Timestamp dt:dt=""r8"">320799132749</Timestamp><Current dt:dt=""r8"">0</Current><DateUtc dt:dt=""string"">2017-10-10T17:16:16Z</DateUtc></FrequencyChange></FrequencyChanges></Clock>\n",Individual-004-1,59.955,?,1.0.0.478,1,-1322845622,Professional,2.0.10.353,2.0.10.353,10/10/2017,10/10/2017 17:16,18:16:16,2.0.10.248,2,2,1,2,M2,List1,1,NULL,NULL,NULL,1,1,1,PracTrial2,BlockList2,3,NULL,NULL,NULL,w,NULL,NULL,NULL,NULL,NULL,NULL,10,2,3,TrialProc,PracTrials2,blue,w,1,w,396
Individual,4,1,"<?xml version=""1.0""?>\n<Clock xmlns:dt=""urn:schemas-microsoft-com:datatypes""><Description dt:dt=""string"">E-Prime Primary Realtime Clock</Description><StartTime><Timestamp dt:dt=""int"">0</Timestamp><DateUtc dt:dt=""string"">2017-10-10T17:16:16Z</DateUtc></StartTime><FrequencyChanges><FrequencyChange><Frequency dt:dt=""r8"">2923154</Frequency><Timestamp dt:dt=""r8"">320799132749</Timestamp><Current dt:dt=""r8"">0</Current><DateUtc dt:dt=""string"">2017-10-10T17:16:16Z</DateUtc></FrequencyChange></FrequencyChanges></Clock>\n",Individual-004-1,59.955,?,1.0.0.478,1,-1322845622,Professional,2.0.10.353,2.0.10.353,10/10/2017,10/10/2017 17:16,18:16:16,2.0.10.248,2,2,1,2,M2,List1,1,NULL,NULL,NULL,1,1,1,PracTrial2,BlockList2,4,NULL,NULL,NULL,w,NULL,NULL,NULL,NULL,NULL,NULL,2,2,4,TrialProc,PracTrials2,blue,w,1,w,731
Individual,4,1,"<?xml version=""1.0""?>\n<Clock xmlns:dt=""urn:schemas-microsoft-com:datatypes""><Description dt:dt=""string"">E-Prime Primary Realtime Clock</Description><StartTime><Timestamp dt:dt=""int"">0</Timestamp><DateUtc dt:dt=""string"">2017-10-10T17:16:16Z</DateUtc></StartTime><FrequencyChanges><FrequencyChange><Frequency dt:dt=""r8"">2923154</Frequency><Timestamp dt:dt=""r8"">320799132749</Timestamp><Current dt:dt=""r8"">0</Current><DateUtc dt:dt=""string"">2017-10-10T17:16:16Z</DateUtc></FrequencyChange></FrequencyChanges></Clock>\n",Individual-004-1,59.955,?,1.0.0.478,1,-1322845622,Professional,2.0.10.353,2.0.10.353,10/10/2017,10/10/2017 17:16,18:16:16,2.0.10.248,2,2,1,2,M2,List1,1,NULL,NULL,NULL,1,1,1,PracTrial2,BlockList2,5,NULL,NULL,NULL,w,NULL,NULL,NULL,NULL,NULL,NULL,13,2,5,TrialProc,PracTrials2,blue,e,1,w,468
Individual,4,1,"<?xml version=""1.0""?>\n<Clock xmlns:dt=""urn:schemas-microsoft-com:datatypes""><Description dt:dt=""string"">E-Prime Primary Realtime Clock</Description><StartTime><Timestamp dt:dt=""int"">0</Timestamp><DateUtc dt:dt=""string"">2017-10-10T17:16:16Z</DateUtc></StartTime><FrequencyChanges><FrequencyChange><Frequency dt:dt=""r8"">2923154</Frequency><Timestamp dt:dt=""r8"">320799132749</Timestamp><Current dt:dt=""r8"">0</Current><DateUtc dt:dt=""string"">2017-10-10T17:16:16Z</DateUtc></FrequencyChange></FrequencyChanges></Clock>\n",Individual-004-1,59.955,?,1.0.0.478,1,-1322845622,Professional,2.0.10.353,2.0.10.353,10/10/2017,10/10/2017 17:16,18:16:16,2.0.10.248,2,2,1,2,M2,List1,1,NULL,NULL,NULL,1,1,1,PracTrial2,BlockList2,6,NULL,NULL,NULL,e,NULL,NULL,NULL,NULL,NULL,NULL,12,2,6,TrialProc,PracTrials2,red,e,1,e,329
