ExperimentName,Subject,Session,Clock.Information,DataFile.Basename,Display1.RefreshRate,Display2.RefreshRate,ExperimentVersion,Group,RandomSeed,RuntimeCapabilities,RuntimeVersion,RuntimeVersionExpected,SessionDate,SessionStartDateTimeUtc,SessionTime,StudioVersion,Block,List1,List1.Cycle,List1.Sample,Procedure[Block],Running[Block],Trial,BlockList1,BlockList1.Cycle,BlockList1.Sample,BlockList2,BlockList2.Cycle,BlockList2.Sample,Procedure[Trial],Running[Trial],SubTrial,b1trails1,b1trails1.Cycle,b1trails1.Sample,CorrectSubj1,List2,List2.Cycle,List2.Sample,PracTrials1,PracTrials1.Cycle,PracTrials1.Sample,PracTrials2,PracTrials2.Cycle,PracTrials2.Sample,Procedure[SubTrial],Running[SubTrial],Screen1_Obj_Colour,Screen_1_Obj_Pos,Subject1ACC,Subject1RESP,Subject1RT
Individual,5,1,"<?xml version=""1.0""?>\n<Clock xmlns:dt=""urn:schemas-microsoft-com:datatypes""><Description dt:dt=""string"">E-Prime Primary Realtime Clock</Description><StartTime><Timestamp dt:dt=""int"">0</Timestamp><DateUtc dt:dt=""string"">2017-10-12T10:20:17Z</DateUtc></StartTime><FrequencyChanges><FrequencyChange><Frequency dt:dt=""r8"">2923154</Frequency><Timestamp dt:dt=""r8"">752925822398</Timestamp><Current dt:dt=""r8"">0</Current><DateUtc dt:dt=""string"">2017-10-12T10:20:17Z</DateUtc></FrequencyChange></FrequencyChanges></Clock>\n",Individual-005-1,59.96,?,1.0.0.481,1,1307112635,Professional,2.0.10.353,2.0.10.353,10/12/2017,12/10/2017 10:20,11:20:17,2.0.10.248,1,1,1,1,M1,List1,1,1,1,1,NULL,NULL,NULL,Prac1,BlockList1,1,NULL,NULL,NULL,e,NULL,NULL,NULL,13,2,1,NULL,NULL,NULL,TrialProc47,PracTrials1,blue,e,1,e,677
Individual,5,1,"<?xml version=""1.0""?>\n<Clock xmlns:dt=""urn:schemas-microsoft-com:datatypes""><Description dt:dt=""string"">E-Prime Primary Realtime Clock</Description><StartTime><Timestamp dt:dt=""int"">0</Timestamp><DateUtc dt:dt=""string"">2017-10-12T10:20:17Z</DateUtc></StartTime><FrequencyChanges><FrequencyChange><Frequency dt:dt=""r8"">2923154</Frequency><Timestamp dt:dt=""r8"">752925822398</Timestamp><Current dt:dt=""r8"">0</Current><DateUtc dt:dt=""string"">2017-10-12T10:20:17Z</DateUtc></FrequencyChange></FrequencyChanges></Clock>\n",Individual-005-1,59.96,?,1.0.0.481,1,1307112635,Professional,2.0.10.353,2.0.10.353,10/12/2017,12/10/2017 10:20,11:20:17,2.0.10.248,1,1,1,1,M1,List1,1,1,1,1,NULL,NULL,NULL,Prac1,BlockList1,2,NULL,NULL,NULL,w,NULL,NULL,NULL,7,2,2,NULL,NULL,NULL,TrialProc47,PracTrials1,red,w,1,w,624
Individual,5,1,"<?xml version=""1.0""?>\n<Clock xmlns:dt=""urn:schemas-microsoft-com:datatypes""><Description dt:dt=""string"">E-Prime Primary Realtime Clock</Description><StartTime><Timestamp dt:dt=""int"">0</Timestamp><DateUtc dt:dt=""string"">2017-10-12T10:20:17Z</DateUtc></StartTime><FrequencyChanges><FrequencyChange><Frequency dt:dt=""r8"">2923154</Frequency><Timestamp dt:dt=""r8"">752925822398</Timestamp><Current dt:dt=""r8"">0</Current><DateUtc dt:dt=""string"">2017-10-12T10:20:17Z</DateUtc></FrequencyChange></FrequencyChanges></Clock>\n",Individual-005-1,59.96,?,1.0.0.481,1,1307112635,Professional,2.0.10.353,2.0.10.353,10/12/2017,12/10/2017 10:20,11:20:17,2.0.10.248,1,1,1,1,M1,List1,1,1,1,1,NULL,NULL,NULL,Prac1,BlockList1,3,NULL,NULL,NULL,e,NULL,NULL,NULL,9,2,3,NULL,NULL,NULL,TrialProc47,PracTrials1,blue,e,1,e,324
Individual,5,1,"<?xml version=""1.0""?>\n<Clock xmlns:dt=""urn:schemas-microsoft-com:datatypes""><Description dt:dt=""string"">E-Prime Primary Realtime Clock</Description><StartTime><Timestamp dt:dt=""int"">0</Timestamp><DateUtc dt:dt=""string"">2017-10-12T10:20:17Z</DateUtc></StartTime><FrequencyChanges><FrequencyChange><Frequency dt:dt=""r8"">2923154</Frequency><Timestamp dt:dt=""r8"">752925822398</Timestamp><Current dt:dt=""r8"">0</Current><DateUtc dt:dt=""string"">2017-10-12T10:20:17Z</DateUtc></FrequencyChange></FrequencyChanges></Clock>\n",Individual-005-1,59.96,?,1.0.0.481,1,1307112635,Professional,2.0.10.353,2.0.10.353,10/12/2017,12/10/2017 10:20,11:20:17,2.0.10.248,1,1,1,1,M1,List1,1,1,1,1,NULL,NULL,NULL,Prac1,BlockList1,4,NULL,NULL,NULL,w,NULL,NULL,NULL,8,2,4,NULL,NULL,NULL,TrialProc47,PracTrials1,red,e,1,w,395
Individual,5,1,"<?xml version=""1.0""?>\n<Clock xmlns:dt=""urn:schemas-microsoft-com:datatypes""><Description dt:dt=""string"">E-Prime Primary Realtime Clock</Description><StartTime><Timestamp dt:dt=""int"">0</Timestamp><DateUtc dt:dt=""string"">2017-10-12T10:20:17Z</DateUtc></StartTime><FrequencyChanges><FrequencyChange><Frequency dt:dt=""r8"">2923154</Frequency><Timestamp dt:dt=""r8"">752925822398</Timestamp><Current dt:dt=""r8"">0</Current><DateUtc dt:dt=""string"">2017-10-12T10:20:17Z</DateUtc></FrequencyChange></FrequencyChanges></Clock>\n",Individual-005-1,59.96,?,1.0.0.481,1,1307112635,Professional,2.0.10.353,2.0.10.353,10/12/2017,12/10/2017 10:20,11:20:17,2.0.10.248,1,1,1,1,M1,List1,1,1,1,1,NULL,NULL,NULL,Prac1,BlockList1,5,NULL,NULL,NULL,w,NULL,NULL,NULL,12,2,5,NULL,NULL,NULL,TrialProc47,PracTrials1,red,e,1,w,403
Individual,5,1,"<?xml version=""1.0""?>\n<Clock xmlns:dt=""urn:schemas-microsoft-com:datatypes""><Description dt:dt=""string"">E-Prime Primary Realtime Clock</Description><StartTime><Timestamp dt:dt=""int"">0</Timestamp><DateUtc dt:dt=""string"">2017-10-12T10:20:17Z</DateUtc></StartTime><FrequencyChanges><FrequencyChange><Frequency dt:dt=""r8"">2923154</Frequency><Timestamp dt:dt=""r8"">752925822398</Timestamp><Current dt:dt=""r8"">0</Current><DateUtc dt:dt=""string"">2017-10-12T10:20:17Z</DateUtc></FrequencyChange></FrequencyChanges></Clock>\n",Individual-005-1,59.96,?,1.0.0.481,1,1307112635,Professional,2.0.10.353,2.0.10.353,10/12/2017,12/10/2017 10:20,11:20:17,2.0.10.248,1,1,1,1,M1,List1,1,1,1,1,NULL,NULL,NULL,Prac1,BlockList1,6,NULL,NULL,NULL,e,NULL,NULL,NULL,1,2,6,NULL,NULL,NULL,TrialProc47,PracTrials1,blue,e,1,e,334
Individual,5,1,"<?xml version=""1.0""?>\n<Clock xmlns:dt=""urn:schemas-microsoft-com:datatypes""><Description dt:dt=""string"">E-Prime Primary Realtime Clock</Description><StartTime><Timestamp dt:dt=""int"">0</Timestamp><DateUtc dt:dt=""string"">2017-10-12T10:20:17Z</DateUtc></StartTime><FrequencyChanges><FrequencyChange><Frequency dt:dt=""r8"">2923154</Frequency><Timestamp dt:dt=""r8"">752925822398</Timestamp><Current dt:dt=""r8"">0</Current><DateUtc dt:dt=""string"">2017-10-12T10:20:17Z</DateUtc></FrequencyChange></FrequencyChanges></Clock>\n",Individual-005-1,59.96,?,1.0.0.481,1,1307112635,Professional,2.0.10.353,2.0.10.353,10/12/2017,12/10/2017 10:20,11:20:17,2.0.10.248,1,1,1,1,M1,List1,1,1,1,1,NULL,NULL,NULL,Prac1,BlockList1,7,NULL,NULL,NULL,w,NULL,NULL,NULL,11,2,7,NULL,NULL,NULL,TrialProc47,PracTrials1,red,w,1,w,435
Individual,5,1,"<?xml version=""1.0""?>\n<Clock xmlns:dt=""urn:schemas-microsoft-com:datatypes""><Description dt:dt=""string"">E-Prime Primary Realtime Clock</Description><StartTime><Timestamp dt:dt=""int"">0</Timestamp><DateUtc dt:dt=""string"">2017-10-12T10:20:17Z</DateUtc></StartTime><FrequencyChanges><FrequencyChange><Frequency dt:dt=""r8"">2923154</Frequency><Timestamp dt:dt=""r8"">752925822398</Timestamp><Current dt:dt=""r8"">0</Current><DateUtc dt:dt=""string"">2017-10-12T10:20:17Z</DateUtc></FrequencyChange></FrequencyChanges></Clock>\n",Individual-005-1,59.96,?,1.0.0.481,1,1307112635,Professional,2.0.10.353,2.0.10.353,10/12/2017,12/10/2017 10:20,11:20:17,2.0.10.248,1,1,1,1,M1,List1,1,1,1,1,NULL,NULL,NULL,Prac1,BlockList1,8,NULL,NULL,NULL,e,NULL,NULL,NULL,10,2,8,NULL,NULL,NULL,TrialProc47,PracTrials1,blue,w,1,e,524
Individual,5,1,"<?xml version=""1.0""?>\n<Clock xmlns:dt=""urn:schemas-microsoft-com:datatypes""><Description dt:dt=""string"">E-Prime Primary Realtime Clock</Description><StartTime><Timestamp dt:dt=""int"">0</Timestamp><DateUtc dt:dt=""string"">2017-10-12T10:20:17Z</DateUtc></StartTime><FrequencyChanges><FrequencyChange><Frequency dt:dt=""r8"">2923154</Frequency><Timestamp dt:dt=""r8"">752925822398</Timestamp><Current dt:dt=""r8"">0</Current><DateUtc dt:dt=""string"">2017-10-12T10:20:17Z</DateUtc></FrequencyChange></FrequencyChanges></Clock>\n",Individual-005-1,59.96,?,1.0.0.481,1,1307112635,Professional,2.0.10.353,2.0.10.353,10/12/2017,12/10/2017 10:20,11:20:17,2.0.10.248,1,1,1,1,M1,List1,1,1,1,1,NULL,NULL,NULL,Prac1,BlockList1,9,NULL,NULL,NULL,w,NULL,NULL,NULL,15,2,9,NULL,NULL,NULL,TrialProc47,PracTrials1,red,w,1,w,357
Individual,5,1,"<?xml version=""1.0""?>\n<Clock xmlns:dt=""urn:schemas-microsoft-com:datatypes""><Description dt:dt=""string"">E-Prime Primary Realtime Clock</Description><StartTime><Timestamp dt:dt=""int"">0</Timestamp><DateUtc dt:dt=""string"">2017-10-12T10:20:17Z</DateUtc></StartTime><FrequencyChanges><FrequencyChange><Frequency dt:dt=""r8"">2923154</Frequency><Timestamp dt:dt=""r8"">752925822398</Timestamp><Current dt:dt=""r8"">0</Current><DateUtc dt:dt=""string"">2017-10-12T10:20:17Z</DateUtc></FrequencyChange></FrequencyChanges></Clock>\n",Individual-005-1,59.96,?,1.0.0.481,1,1307112635,Professional,2.0.10.353,2.0.10.353,10/12/2017,12/10/2017 10:20,11:20:17,2.0.10.248,1,1,1,1,M1,List1,1,1,1,1,NULL,NULL,NULL,Prac1,BlockList1,10,NULL,NULL,NULL,e,NULL,NULL,NULL,2,2,10,NULL,NULL,NULL,TrialProc47,PracTrials1,blue,w,1,e,435
Individual,5,1,"<?xml version=""1.0""?>\n<Clock xmlns:dt=""urn:schemas-microsoft-com:datatypes""><Description dt:dt=""string"">E-Prime Primary Realtime Clock</Description><StartTime><Timestamp dt:dt=""int"">0</Timestamp><DateUtc dt:dt=""string"">2017-10-12T10:20:17Z</DateUtc></StartTime><FrequencyChanges><FrequencyChange><Frequency dt:dt=""r8"">2923154</Frequency><Timestamp dt:dt=""r8"">752925822398</Timestamp><Current dt:dt=""r8"">0</Current><DateUtc dt:dt=""string"">2017-10-12T10:20:17Z</DateUtc></FrequencyChange></FrequencyChanges></Clock>\n",Individual-005-1,59.96,?,1.0.0.481,1,1307112635,Professional,2.0.10.353,2.0.10.353,10/12/2017,12/10/2017 10:20,11:20:17,2.0.10.248,1,1,1,1,M1,List1,1,1,1,1,NULL,NULL,NULL,Prac1,BlockList1,11,NULL,NULL,NULL,e,NULL,NULL,NULL,6,2,11,NULL,NULL,NULL,TrialProc47,PracTrials1,blue,w,1,e,392
Individual,5,1,"<?xml version=""1.0""?>\n<Clock xmlns:dt=""urn:schemas-microsoft-com:datatypes""><Description dt:dt=""string"">E-Prime Primary Realtime Clock</Description><StartTime><Timestamp dt:dt=""int"">0</Timestamp><DateUtc dt:dt=""string"">2017-10-12T10:20:17Z</DateUtc></StartTime><FrequencyChanges><FrequencyChange><Frequency dt:dt=""r8"">2923154</Frequency><Timestamp dt:dt=""r8"">752925822398</Timestamp><Current dt:dt=""r8"">0</Current><DateUtc dt:dt=""string"">2017-10-12T10:20:17Z</DateUtc></FrequencyChange></FrequencyChanges></Clock>\n",Individual-005-1,59.96,?,1.0.0.481,1,1307112635,Professional,2.0.10.353,2.0.10.353,10/12/2017,12/10/2017 10:20,11:20:17,2.0.10.248,1,1,1,1,M1,List1,1,1,1,1,NULL,NULL,NULL,Prac1,BlockList1,12,NULL,NULL,NULL,w,NULL,NULL,NULL,16,2,12,NULL,NULL,NULL,TrialProc47,PracTrials1,red,e,1,w,390
Individual,5,1,"<?xml version=""1.0""?>\n<Clock xmlns:dt=""urn:schemas-microsoft-com:datatypes""><Description dt:dt=""string"">E-Prime Primary Realtime Clock</Description><StartTime><Timestamp dt:dt=""int"">0</Timestamp><DateUtc dt:dt=""string"">2017-10-12T10:20:17Z</DateUtc></StartTime><FrequencyChanges><FrequencyChange><Frequency dt:dt=""r8"">2923154</Frequency><Timestamp dt:dt=""r8"">752925822398</Timestamp><Current dt:dt=""r8"">0</Current><DateUtc dt:dt=""string"">2017-10-12T10:20:17Z</DateUtc></FrequencyChange></FrequencyChanges></Clock>\n",Individual-005-1,59.96,?,1.0.0.481,1,1307112635,Professional,2.0.10.353,2.0.10.353,10/12/2017,12/10/2017 10:20,11:20:17,2.0.10.248,1,1,1,1,M1,List1,1,1,1,1,NULL,NULL,NULL,Prac1,BlockList1,13,NULL,NULL,NULL,w,NULL,NULL,NULL,4,2,13,NULL,NULL,NULL,TrialProc47,PracTrials1,red,e,1,w,407
Individual,5,1,"<?xml version=""1.0""?>\n<Clock xmlns:dt=""urn:schemas-microsoft-com:datatypes""><Description dt:dt=""string"">E-Prime Primary Realtime Clock</Description><StartTime><Timestamp dt:dt=""int"">0</Timestamp><DateUtc dt:dt=""string"">2017-10-12T10:20:17Z</DateUtc></StartTime><FrequencyChanges><FrequencyChange><Frequency dt:dt=""r8"">2923154</Frequency><Timestamp dt:dt=""r8"">752925822398</Timestamp><Current dt:dt=""r8"">0</Current><DateUtc dt:dt=""string"">2017-10-12T10:20:17Z</DateUtc></FrequencyChange></FrequencyChanges></Clock>\n",Individual-005-1,59.96,?,1.0.0.481,1,1307112635,Professional,2.0.10.353,2.0.10.353,10/12/2017,12/10/2017 10:20,11:20:17,2.0.10.248,1,1,1,1,M1,List1,1,1,1,1,NULL,NULL,NULL,Prac1,BlockList1,14,NULL,NULL,NULL,e,NULL,NULL,NULL,5,2,14,NULL,NULL,NULL,TrialProc47,PracTrials1,blue,e,1,e,417
Individual,5,1,"<?xml version=""1.0""?>\n<Clock xmlns:dt=""urn:schemas-microsoft-com:datatypes""><Description dt:dt=""string"">E-Prime Primary Realtime Clock</Description><StartTime><Timestamp dt:dt=""int"">0</Timestamp><DateUtc dt:dt=""string"">2017-10-12T10:20:17Z</DateUtc></StartTime><FrequencyChanges><FrequencyChange><Frequency dt:dt=""r8"">2923154</Frequency><Timestamp dt:dt=""r8"">752925822398</Timestamp><Current dt:dt=""r8"">0</Current><DateUtc dt:dt=""string"">2017-10-12T10:20:17Z</DateUtc></FrequencyChange></FrequencyChanges></Clock>\n",Individual-005-1,59.96,?,1.0.0.481,1,1307112635,Professional,2.0.10.353,2.0.10.353,10/12/2017,12/10/2017 10:20,11:20:17,2.0.10.248,1,1,1,1,M1,List1,1,1,1,1,NULL,NULL,NULL,Prac1,BlockList1,15,NULL,NULL,NULL,w,NULL,NULL,NULL,3,2,15,NULL,NULL,NULL,TrialProc47,PracTrials1,red,w,1,w,415
Individual,5,1,"<?xml version=""1.0""?>\n<Clock xmlns:dt=""urn:schemas-microsoft-com:datatypes""><Description dt:dt=""string"">E-Prime Primary Realtime Clock</Description><StartTime><Timestamp dt:dt=""int"">0</Timestamp><DateUtc dt:dt=""string"">2017-10-12T10:20:17Z</DateUtc></StartTime><FrequencyChanges><FrequencyChange><Frequency dt:dt=""r8"">2923154</Frequency><Timestamp dt:dt=""r8"">752925822398</Timestamp><Current dt:dt=""r8"">0</Current><DateUtc dt:dt=""string"">2017-10-12T10:20:17Z</DateUtc></FrequencyChange></FrequencyChanges></Clock>\n",Individual-005-1,59.96,?,1.0.0.481,1,1307112635,Professional,2.0.10.353,2.0.10.353,10/12/2017,12/10/2017 10:20,11:20:17,2.0.10.248,1,1,1,1,M1,List1,1,1,1,1,NULL,NULL,NULL,Prac1,BlockList1,16,NULL,NULL,NULL,e,NULL,NULL,NULL,14,2,16,NULL,NULL,NULL,TrialProc47,PracTrials1,blue,w,1,e,394
Individual,5,1,"<?xml version=""1.0""?>\n<Clock xmlns:dt=""urn:schemas-microsoft-com:datatypes""><Description dt:dt=""string"">E-Prime Primary Realtime Clock</Description><StartTime><Timestamp dt:dt=""int"">0</Timestamp><DateUtc dt:dt=""string"">2017-10-12T10:20:17Z</DateUtc></StartTime><FrequencyChanges><FrequencyChange><Frequency dt:dt=""r8"">2923154</Frequency><Timestamp dt:dt=""r8"">752925822398</Timestamp><Current dt:dt=""r8"">0</Current><DateUtc dt:dt=""string"">2017-10-12T10:20:17Z</DateUtc></FrequencyChange></FrequencyChanges></Clock>\n",Individual-005-1,59.96,?,1.0.0.481,1,1307112635,Professional,2.0.10.353,2.0.10.353,10/12/2017,12/10/2017 10:20,11:20:17,2.0.10.248,1,1,1,1,M1,List1,2,2,1,2,NULL,NULL,NULL,InstruProc,BlockList1,NULL,NULL,NULL,NULL,NULL,NULL,NULL,NULL,NULL,NULL,NULL,NULL,NULL,NULL,NULL,NULL,NULL,NULL,NULL,NULL,NULL
Individual,5,1,"<?xml version=""1.0""?>\n<Clock xmlns:dt=""urn:schemas-microsoft-com:datatypes""><Description dt:dt=""string"">E-Prime Primary Realtime Clock</Description><StartTime><Timestamp dt:dt=""int"">0</Timestamp><DateUtc dt:dt=""string"">2017-10-12T10:20:17Z</DateUtc></StartTime><FrequencyChanges><FrequencyChange><Frequency dt:dt=""r8"">2923154</Frequency><Timestamp dt:dt=""r8"">752925822398</Timestamp><Current dt:dt=""r8"">0</Current><DateUtc dt:dt=""string"">2017-10-12T10:20:17Z</DateUtc></FrequencyChange></FrequencyChanges></Clock>\n",Individual-005-1,59.96,?,1.0.0.481,1,1307112635,Professional,2.0.10.353,2.0.10.353,10/12/2017,12/10/2017 10:20,11:20:17,2.0.10.248,1,1,1,1,M1,List1,3,3,1,3,NULL,NULL,NULL,b1,BlockList1,1,65,2,1,e,NULL,NULL,NULL,NULL,NULL,NULL,NULL,NULL,NULL,TrialProc4,b1trails1,blue,e,1,e,319
Individual,5,1,"<?xml version=""1.0""?>\n<Clock xmlns:dt=""urn:schemas-microsoft-com:datatypes""><Description dt:dt=""string"">E-Prime Primary Realtime Clock</Description><StartTime><Timestamp dt:dt=""int"">0</Timestamp><DateUtc dt:dt=""string"">2017-10-12T10:20:17Z</DateUtc></StartTime><FrequencyChanges><FrequencyChange><Frequency dt:dt=""r8"">2923154</Frequency><Timestamp dt:dt=""r8"">752925822398</Timestamp><Current dt:dt=""r8"">0</Current><DateUtc dt:dt=""string"">2017-10-12T10:20:17Z</DateUtc></FrequencyChange></FrequencyChanges></Clock>\n",Individual-005-1,59.96,?,1.0.0.481,1,1307112635,Professional,2.0.10.353,2.0.10.353,10/12/2017,12/10/2017 10:20,11:20:17,2.0.10.248,1,1,1,1,M1,List1,3,3,1,3,NULL,NULL,NULL,b1,BlockList1,2,19,2,2,w,NULL,NULL,NULL,NULL,NULL,NULL,NULL,NULL,NULL,TrialProc4,b1trails1,red,w,1,w,398
Individual,5,1,"<?xml version=""1.0""?>\n<Clock xmlns:dt=""urn:schemas-microsoft-com:datatypes""><Description dt:dt=""string"">E-Prime Primary Realtime Clock</Description><StartTime><Timestamp dt:dt=""int"">0</Timestamp><DateUtc dt:dt=""string"">2017-10-12T10:20:17Z</DateUtc></StartTime><FrequencyChanges><FrequencyChange><Frequency dt:dt=""r8"">2923154</Frequency><Timestamp dt:dt=""r8"">752925822398</Timestamp><Current dt:dt=""r8"">0</Current><DateUtc dt:dt=""string"">2017-10-12T10:20:17Z</DateUtc></FrequencyChange></FrequencyChanges></Clock>\n",Individual-005-1,59.96,?,1.0.0.481,1,1307112635,Professional,2.0.10.353,2.0.10.353,10/12/2017,12/10/2017 10:20,11:20:17,2.0.10.248,1,1,1,1,M1,List1,3,3,1,3,NULL,NULL,NULL,b1,BlockList1,3,25,2,3,e,NULL,NULL,NULL,NULL,NULL,NULL,NULL,NULL,NULL,TrialProc4,b1trails1,blue,e,1,e,291
Individual,5,1,"<?xml version=""1.0""?>\n<Clock xmlns:dt=""urn:schemas-microsoft-com:datatypes""><Description dt:dt=""string"">E-Prime Primary Realtime Clock</Description><StartTime><Timestamp dt:dt=""int"">0</Timestamp><DateUtc dt:dt=""string"">2017-10-12T10:20:17Z</DateUtc></StartTime><FrequencyChanges><FrequencyChange><Frequency dt:dt=""r8"">2923154</Frequency><Timestamp dt:dt=""r8"">752925822398</Timestamp><Current dt:dt=""r8"">0</Current><DateUtc dt:dt=""string"">2017-10-12T10:20:17Z</DateUtc></FrequencyChange></FrequencyChanges></Clock>\n",Individual-005-1,59.96,?,1.0.0.481,1,1307112635,Professional,2.0.10.353,2.0.10.353,10/12/2017,12/10/2017 10:20,11:20:17,2.0.10.248,1,1,1,1,M1,List1,3,3,1,3,NULL,NULL,NULL,b1,BlockList1,4,74,2,4,e,NULL,NULL,NULL,NULL,NULL,NULL,NULL,NULL,NULL,TrialProc4,b1trails1,blue,w,1,e,356
Individual,5,1,"<?xml version=""1.0""?>\n<Clock xmlns:dt=""urn:schemas-microsoft-com:datatypes""><Description dt:dt=""string"">E-Prime Primary Realtime Clock</Description><StartTime><Timestamp dt:dt=""int"">0</Timestamp><DateUtc dt:dt=""string"">2017-10-12T10:20:17Z</DateUtc></StartTime><FrequencyChanges><FrequencyChange><Frequency dt:dt=""r8"">2923154</Frequency><Timestamp dt:dt=""r8"">752925822398</Timestamp><Current dt:dt=""r8"">0</Current><DateUtc dt:dt=""string"">2017-10-12T10:20:17Z</DateUtc></FrequencyChange></FrequencyChanges></Clock>\n",Individual-005-1,59.96,?,1.0.0.481,1,1307112635,Professional,2.0.10.353,2.0.10.353,10/12/2017,12/10/2017 10:20,11:20:17,2.0.10.248,1,1,1,1,M1,List1,3,3,1,3,NULL,NULL,NULL,b1,BlockList1,5,62,2,5,e,NULL,NULL,NULL,NULL,NULL,NULL,NULL,NULL,NULL,TrialProc4,b1trails1,blue,w,1,e,370
Individual,5,1,"<?xml version=""1.0""?>\n<Clock xmlns:dt=""urn:schemas-microsoft-com:datatypes""><Description dt:dt=""string"">E-Prime Primary Realtime Clock</Description><StartTime><Timestamp dt:dt=""int"">0</Timestamp><DateUtc dt:dt=""string"">2017-10-12T10:20:17Z</DateUtc></StartTime><FrequencyChanges><FrequencyChange><Frequency dt:dt=""r8"">2923154</Frequency><Timestamp dt:dt=""r8"">752925822398</Timestamp><Current dt:dt=""r8"">0</Current><DateUtc dt:dt=""string"">2017-10-12T10:20:17Z</DateUtc></FrequencyChange></FrequencyChanges></Clock>\n",Individual-005-1,59.96,?,1.0.0.481,1,1307112635,Professional,2.0.10.353,2.0.10.353,10/12/2017,12/10/2017 10:20,11:20:17,2.0.10.248,1,1,1,1,M1,List1,3,3,1,3,NULL,NULL,NULL,b1,BlockList1,6,45,2,6,e,NULL,NULL,NULL,NULL,NULL,NULL,NULL,NULL,NULL,TrialProc4,b1trails1,blue,e,1,e,277
Individual,5,1,"<?xml version=""1.0""?>\n<Clock xmlns:dt=""urn:schemas-microsoft-com:datatypes""><Description dt:dt=""string"">E-Prime Primary Realtime Clock</Description><StartTime><Timestamp dt:dt=""int"">0</Timestamp><DateUtc dt:dt=""string"">2017-10-12T10:20:17Z</DateUtc></StartTime><FrequencyChanges><FrequencyChange><Frequency dt:dt=""r8"">2923154</Frequency><Timestamp dt:dt=""r8"">752925822398</Timestamp><Current dt:dt=""r8"">0</Current><DateUtc dt:dt=""string"">2017-10-12T10:20:17Z</DateUtc></FrequencyChange></FrequencyChanges></Clock>\n",Individual-005-1,59.96,?,1.0.0.481,1,1307112635,Professional,2.0.10.353,2.0.10.353,10/12/2017,12/10/2017 10:20,11:20:17,2.0.10.248,1,1,1,1,M1,List1,3,3,1,3,NULL,NULL,NULL,b1,BlockList1,7,16,2,7,w,NULL,NULL,NULL,NULL,NULL,NULL,NULL,NULL,NULL,TrialProc4,b1trails1,red,e,1,w,678
Individual,5,1,"<?xml version=""1.0""?>\n<Clock xmlns:dt=""urn:schemas-microsoft-com:datatypes""><Description dt:dt=""string"">E-Prime Primary Realtime Clock</Description><StartTime><Timestamp dt:dt=""int"">0</Timestamp><DateUtc dt:dt=""string"">2017-10-12T10:20:17Z</DateUtc></StartTime><FrequencyChanges><FrequencyChange><Frequency dt:dt=""r8"">2923154</Frequency><Timestamp dt:dt=""r8"">752925822398</Timestamp><Current dt:dt=""r8"">0</Current><DateUtc dt:dt=""string"">2017-10-12T10:20:17Z</DateUtc></FrequencyChange></FrequencyChanges></Clock>\n",Individual-005-1,59.96,?,1.0.0.481,1,1307112635,Professional,2.0.10.353,2.0.10.353,10/12/2017,12/10/2017 10:20,11:20:17,2.0.10.248,1,1,1,1,M1,List1,3,3,1,3,NULL,NULL,NULL,b1,BlockList1,8,90,2,8,e,NULL,NULL,NULL,NULL,NULL,NULL,NULL,NULL,NULL,TrialProc4,b1trails1,blue,w,1,e,358
Individual,5,1,"<?xml version=""1.0""?>\n<Clock xmlns:dt=""urn:schemas-microsoft-com:datatypes""><Description dt:dt=""string"">E-Prime Primary Realtime Clock</Description><StartTime><Timestamp dt:dt=""int"">0</Timestamp><DateUtc dt:dt=""string"">2017-10-12T10:20:17Z</DateUtc></StartTime><FrequencyChanges><FrequencyChange><Frequency dt:dt=""r8"">2923154</Frequency><Timestamp dt:dt=""r8"">752925822398</Timestamp><Current dt:dt=""r8"">0</Current><DateUtc dt:dt=""string"">2017-10-12T10:20:17Z</DateUtc></FrequencyChange></FrequencyChanges></Clock>\n",Individual-005-1,59.96,?,1.0.0.481,1,1307112635,Professional,2.0.10.353,2.0.10.353,10/12/2017,12/10/2017 10:20,11:20:17,2.0.10.248,1,1,1,1,M1,List1,3,3,1,3,NULL,NULL,NULL,b1,BlockList1,9,96,2,9,w,NULL,NULL,NULL,NULL,NULL,NULL,NULL,NULL,NULL,TrialProc4,b1trails1,red,e,1,w,403
Individual,5,1,"<?xml version=""1.0""?>\n<Clock xmlns:dt=""urn:schemas-microsoft-com:datatypes""><Description dt:dt=""string"">E-Prime Primary Realtime Clock</Description><StartTime><Timestamp dt:dt=""int"">0</Timestamp><DateUtc dt:dt=""string"">2017-10-12T10:20:17Z</DateUtc></StartTime><FrequencyChanges><FrequencyChange><Frequency dt:dt=""r8"">2923154</Frequency><Timestamp dt:dt=""r8"">752925822398</Timestamp><Current dt:dt=""r8"">0</Current><DateUtc dt:dt=""string"">2017-10-12T10:20:17Z</DateUtc></FrequencyChange></FrequencyChanges></Clock>\n",Individual-005-1,59.96,?,1.0.0.481,1,1307112635,Professional,2.0.10.353,2.0.10.353,10/12/2017,12/10/2017 10:20,11:20:17,2.0.10.248,1,1,1,1,M1,List1,3,3,1,3,NULL,NULL,NULL,b1,BlockList1,10,71,2,10,w,NULL,NULL,NULL,NULL,NULL,NULL,NULL,NULL,NULL,TrialProc4,b1trails1,red,w,1,w,358
Individual,5,1,"<?xml version=""1.0""?>\n<Clock xmlns:dt=""urn:schemas-microsoft-com:datatypes""><Description dt:dt=""string"">E-Prime Primary Realtime Clock</Description><StartTime><Timestamp dt:dt=""int"">0</Timestamp><DateUtc dt:dt=""string"">2017-10-12T10:20:17Z</DateUtc></StartTime><FrequencyChanges><FrequencyChange><Frequency dt:dt=""r8"">2923154</Frequency><Timestamp dt:dt=""r8"">752925822398</Timestamp><Current dt:dt=""r8"">0</Current><DateUtc dt:dt=""string"">2017-10-12T10:20:17Z</DateUtc></FrequencyChange></FrequencyChanges></Clock>\n",Individual-005-1,59.96,?,1.0.0.481,1,1307112635,Professional,2.0.10.353,2.0.10.353,10/12/2017,12/10/2017 10:20,11:20:17,2.0.10.248,1,1,1,1,M1,List1,3,3,1,3,NULL,NULL,NULL,b1,BlockList1,11,80,2,11,w,NULL,NULL,NULL,NULL,NULL,NULL,NULL,NULL,NULL,TrialProc4,b1trails1,red,e,1,w,403
Individual,5,1,"<?xml version=""1.0""?>\n<Clock xmlns:dt=""urn:schemas-microsoft-com:datatypes""><Description dt:dt=""string"">E-Prime Primary Realtime Clock</Description><StartTime><Timestamp dt:dt=""int"">0</Timestamp><DateUtc dt:dt=""string"">2017-10-12T10:20:17Z</DateUtc></StartTime><FrequencyChanges><FrequencyChange><Frequency dt:dt=""r8"">2923154</Frequency><Timestamp dt:dt=""r8"">752925822398</Timestamp><Current dt:dt=""r8"">0</Current><DateUtc dt:dt=""string"">2017-10-12T10:20:17Z</DateUtc></FrequencyChange></FrequencyChanges></Clock>\n",Individual-005-1,59.96,?,1.0.0.481,1,1307112635,Professional,2.0.10.353,2.0.10.353,10/12/2017,12/10/2017 10:20,11:20:17,2.0.10.248,1,1,1,1,M1,List1,3,3,1,3,NULL,NULL,NULL,b1,BlockList1,12,66,2,12,e,NULL,NULL,NULL,NULL,NULL,NULL,NULL,NULL,NULL,TrialProc4,b1trails1,blue,w,1,e,360
Individual,5,1,"<?xml version=""1.0""?>\n<Clock xmlns:dt=""urn:schemas-microsoft-com:datatypes""><Description dt:dt=""string"">E-Prime Primary Realtime Clock</Description><StartTime><Timestamp dt:dt=""int"">0</Timestamp><DateUtc dt:dt=""string"">2017-10-12T10:20:17Z</DateUtc></StartTime><FrequencyChanges><FrequencyChange><Frequency dt:dt=""r8"">2923154</Frequency><Timestamp dt:dt=""r8"">752925822398</Timestamp><Current dt:dt=""r8"">0</Current><DateUtc dt:dt=""string"">2017-10-12T10:20:17Z</DateUtc></FrequencyChange></FrequencyChanges></Clock>\n",Individual-005-1,59.96,?,1.0.0.481,1,1307112635,Professional,2.0.10.353,2.0.10.353,10/12/2017,12/10/2017 10:20,11:20:17,2.0.10.248,1,1,1,1,M1,List1,3,3,1,3,NULL,NULL,NULL,b1,BlockList1,13,23,2,13,w,NULL,NULL,NULL,NULL,NULL,NULL,NULL,NULL,NULL,TrialProc4,b1trails1,red,w,1,w,322
Individual,5,1,"<?xml version=""1.0""?>\n<Clock xmlns:dt=""urn:schemas-microsoft-com:datatypes""><Description dt:dt=""string"">E-Prime Primary Realtime Clock</Description><StartTime><Timestamp dt:dt=""int"">0</Timestamp><DateUtc dt:dt=""string"">2017-10-12T10:20:17Z</DateUtc></StartTime><FrequencyChanges><FrequencyChange><Frequency dt:dt=""r8"">2923154</Frequency><Timestamp dt:dt=""r8"">752925822398</Timestamp><Current dt:dt=""r8"">0</Current><DateUtc dt:dt=""string"">2017-10-12T10:20:17Z</DateUtc></FrequencyChange></FrequencyChanges></Clock>\n",Individual-005-1,59.96,?,1.0.0.481,1,1307112635,Professional,2.0.10.353,2.0.10.353,10/12/2017,12/10/2017 10:20,11:20:17,2.0.10.248,1,1,1,1,M1,List1,3,3,1,3,NULL,NULL,NULL,b1,BlockList1,14,83,2,14,w,NULL,NULL,NULL,NULL,NULL,NULL,NULL,NULL,NULL,TrialProc4,b1trails1,red,w,1,w,439
Individual,5,1,"<?xml version=""1.0""?>\n<Clock xmlns:dt=""urn:schemas-microsoft-com:datatypes""><Description dt:dt=""string"">E-Prime Primary Realtime Clock</Description><StartTime><Timestamp dt:dt=""int"">0</Timestamp><DateUtc dt:dt=""string"">2017-10-12T10:20:17Z</DateUtc></StartTime><FrequencyChanges><FrequencyChange><Frequency dt:dt=""r8"">2923154</Frequency><Timestamp dt:dt=""r8"">752925822398</Timestamp><Current dt:dt=""r8"">0</Current><DateUtc dt:dt=""string"">2017-10-12T10:20:17Z</DateUtc></FrequencyChange></FrequencyChanges></Clock>\n",Individual-005-1,59.96,?,1.0.0.481,1,1307112635,Professional,2.0.10.353,2.0.10.353,10/12/2017,12/10/2017 10:20,11:20:17,2.0.10.248,1,1,1,1,M1,List1,3,3,1,3,NULL,NULL,NULL,b1,BlockList1,15,37,2,15,e,NULL,NULL,NULL,NULL,NULL,NULL,NULL,NULL,NULL,TrialProc4,b1trails1,blue,e,1,e,506
Individual,5,1,"<?xml version=""1.0""?>\n<Clock xmlns:dt=""urn:schemas-microsoft-com:datatypes""><Description dt:dt=""string"">E-Prime Primary Realtime Clock</Description><StartTime><Timestamp dt:dt=""int"">0</Timestamp><DateUtc dt:dt=""string"">2017-10-12T10:20:17Z</DateUtc></StartTime><FrequencyChanges><FrequencyChange><Frequency dt:dt=""r8"">2923154</Frequency><Timestamp dt:dt=""r8"">752925822398</Timestamp><Current dt:dt=""r8"">0</Current><DateUtc dt:dt=""string"">2017-10-12T10:20:17Z</DateUtc></FrequencyChange></FrequencyChanges></Clock>\n",Individual-005-1,59.96,?,1.0.0.481,1,1307112635,Professional,2.0.10.353,2.0.10.353,10/12/2017,12/10/2017 10:20,11:20:17,2.0.10.248,1,1,1,1,M1,List1,3,3,1,3,NULL,NULL,NULL,b1,BlockList1,16,40,2,16,w,NULL,NULL,NULL,NULL,NULL,NULL,NULL,NULL,NULL,TrialProc4,b1trails1,red,e,1,w,566
Individual,5,1,"<?xml version=""1.0""?>\n<Clock xmlns:dt=""urn:schemas-microsoft-com:datatypes""><Description dt:dt=""string"">E-Prime Primary Realtime Clock</Description><StartTime><Timestamp dt:dt=""int"">0</Timestamp><DateUtc dt:dt=""string"">2017-10-12T10:20:17Z</DateUtc></StartTime><FrequencyChanges><FrequencyChange><Frequency dt:dt=""r8"">2923154</Frequency><Timestamp dt:dt=""r8"">752925822398</Timestamp><Current dt:dt=""r8"">0</Current><DateUtc dt:dt=""string"">2017-10-12T10:20:17Z</DateUtc></FrequencyChange></FrequencyChanges></Clock>\n",Individual-005-1,59.96,?,1.0.0.481,1,1307112635,Professional,2.0.10.353,2.0.10.353,10/12/2017,12/10/2017 10:20,11:20:17,2.0.10.248,1,1,1,1,M1,List1,3,3,1,3,NULL,NULL,NULL,b1,BlockList1,17,35,2,17,w,NULL,NULL,NULL,NULL,NULL,NULL,NULL,NULL,NULL,TrialProc4,b1trails1,red,w,1,w,435
Individual,5,1,"<?xml version=""1.0""?>\n<Clock xmlns:dt=""urn:schemas-microsoft-com:datatypes""><Description dt:dt=""string"">E-Prime Primary Realtime Clock</Description><StartTime><Timestamp dt:dt=""int"">0</Timestamp><DateUtc dt:dt=""string"">2017-10-12T10:20:17Z</DateUtc></StartTime><FrequencyChanges><FrequencyChange><Frequency dt:dt=""r8"">2923154</Frequency><Timestamp dt:dt=""r8"">752925822398</Timestamp><Current dt:dt=""r8"">0</Current><DateUtc dt:dt=""string"">2017-10-12T10:20:17Z</DateUtc></FrequencyChange></FrequencyChanges></Clock>\n",Individual-005-1,59.96,?,1.0.0.481,1,1307112635,Professional,2.0.10.353,2.0.10.353,10/12/2017,12/10/2017 10:20,11:20:17,2.0.10.248,1,1,1,1,M1,List1,3,3,1,3,NULL,NULL,NULL,b1,BlockList1,18,77,2,18,e,NULL,NULL,NULL,NULL,NULL,NULL,NULL,NULL,NULL,TrialProc4,b1trails1,blue,e,1,e,497
Individual,5,1,"<?xml version=""1.0""?>\n<Clock xmlns:dt=""urn:schemas-microsoft-com:datatypes""><Description dt:dt=""string"">E-Prime Primary Realtime Clock</Description><StartTime><Timestamp dt:dt=""int"">0</Timestamp><DateUtc dt:dt=""string"">2017-10-12T10:20:17Z</DateUtc></StartTime><FrequencyChanges><FrequencyChange><Frequency dt:dt=""r8"">2923154</Frequency><Timestamp dt:dt=""r8"">752925822398</Timestamp><Current dt:dt=""r8"">0</Current><DateUtc dt:dt=""string"">2017-10-12T10:20:17Z</DateUtc></FrequencyChange></FrequencyChanges></Clock>\n",Individual-005-1,59.96,?,1.0.0.481,1,1307112635,Professional,2.0.10.353,2.0.10.353,10/12/2017,12/10/2017 10:20,11:20:17,2.0.10.248,1,1,1,1,M1,List1,3,3,1,3,NULL,NULL,NULL,b1,BlockList1,19,86,2,19,e,NULL,NULL,NULL,NULL,NULL,NULL,NULL,NULL,NULL,TrialProc4,b1trails1,blue,w,1,e,706
Individual,5,1,"<?xml version=""1.0""?>\n<Clock xmlns:dt=""urn:schemas-microsoft-com:datatypes""><Description dt:dt=""string"">E-Prime Primary Realtime Clock</Description><StartTime><Timestamp dt:dt=""int"">0</Timestamp><DateUtc dt:dt=""string"">2017-10-12T10:20:17Z</DateUtc></StartTime><FrequencyChanges><FrequencyChange><Frequency dt:dt=""r8"">2923154</Frequency><Timestamp dt:dt=""r8"">752925822398</Timestamp><Current dt:dt=""r8"">0</Current><DateUtc dt:dt=""string"">2017-10-12T10:20:17Z</DateUtc></FrequencyChange></FrequencyChanges></Clock>\n",Individual-005-1,59.96,?,1.0.0.481,1,1307112635,Professional,2.0.10.353,2.0.10.353,10/12/2017,12/10/2017 10:20,11:20:17,2.0.10.248,1,1,1,1,M1,List1,3,3,1,3,NULL,NULL,NULL,b1,BlockList1,20,89,2,20,e,NULL,NULL,NULL,NULL,NULL,NULL,NULL,NULL,NULL,TrialProc4,b1trails1,blue,e,1,e,364
Individual,5,1,"<?xml version=""1.0""?>\n<Clock xmlns:dt=""urn:schemas-microsoft-com:datatypes""><Description dt:dt=""string"">E-Prime Primary Realtime Clock</Description><StartTime><Timestamp dt:dt=""int"">0</Timestamp><DateUtc dt:dt=""string"">2017-10-12T10:20:17Z</DateUtc></StartTime><FrequencyChanges><FrequencyChange><Frequency dt:dt=""r8"">2923154</Frequency><Timestamp dt:dt=""r8"">752925822398</Timestamp><Current dt:dt=""r8"">0</Current><DateUtc dt:dt=""string"">2017-10-12T10:20:17Z</DateUtc></FrequencyChange></FrequencyChanges></Clock>\n",Individual-005-1,59.96,?,1.0.0.481,1,1307112635,Professional,2.0.10.353,2.0.10.353,10/12/2017,12/10/2017 10:20,11:20:17,2.0.10.248,1,1,1,1,M1,List1,3,3,1,3,NULL,NULL,NULL,b1,BlockList1,21,73,2,21,e,NULL,NULL,NULL,NULL,NULL,NULL,NULL,NULL,NULL,TrialProc4,b1trails1,blue,e,1,e,393
Individual,5,1,"<?xml version=""1.0""?>\n<Clock xmlns:dt=""urn:schemas-microsoft-com:datatypes""><Description dt:dt=""string"">E-Prime Primary Realtime Clock</Description><StartTime><Timestamp dt:dt=""int"">0</Timestamp><DateUtc dt:dt=""string"">2017-10-12T10:20:17Z</DateUtc></StartTime><FrequencyChanges><FrequencyChange><Frequency dt:dt=""r8"">2923154</Frequency><Timestamp dt:dt=""r8"">752925822398</Timestamp><Current dt:dt=""r8"">0</Current><DateUtc dt:dt=""string"">2017-10-12T10:20:17Z</DateUtc></FrequencyChange></FrequencyChanges></Clock>\n",Individual-005-1,59.96,?,1.0.0.481,1,1307112635,Professional,2.0.10.353,2.0.10.353,10/12/2017,12/10/2017 10:20,11:20:17,2.0.10.248,1,1,1,1,M1,List1,3,3,1,3,NULL,NULL,NULL,b1,BlockList1,22,68,2,22,w,NULL,NULL,NULL,NULL,NULL,NULL,NULL,NULL,NULL,TrialProc4,b1trails1,red,e,1,w,423
Individual,5,1,"<?xml version=""1.0""?>\n<Clock xmlns:dt=""urn:schemas-microsoft-com:datatypes""><Description dt:dt=""string"">E-Prime Primary Realtime Clock</Description><StartTime><Timestamp dt:dt=""int"">0</Timestamp><DateUtc dt:dt=""string"">2017-10-12T10:20:17Z</DateUtc></StartTime><FrequencyChanges><FrequencyChange><Frequency dt:dt=""r8"">2923154</Frequency><Timestamp dt:dt=""r8"">752925822398</Timestamp><Current dt:dt=""r8"">0</Current><DateUtc dt:dt=""string"">2017-10-12T10:20:17Z</DateUtc></FrequencyChange></FrequencyChanges></Clock>\n",Individual-005-1,59.96,?,1.0.0.481,1,1307112635,Professional,2.0.10.353,2.0.10.353,10/12/2017,12/10/2017 10:20,11:20:17,2.0.10.248,1,1,1,1,M1,List1,3,3,1,3,NULL,NULL,NULL,b1,BlockList1,23,85,2,23,e,NULL,NULL,NULL,NULL,NULL,NULL,NULL,NULL,NULL,TrialProc4,b1trails1,blue,e,1,e,512
Individual,5,1,"<?xml version=""1.0""?>\n<Clock xmlns:dt=""urn:schemas-microsoft-com:datatypes""><Description dt:dt=""string"">E-Prime Primary Realtime Clock</Description><StartTime><Timestamp dt:dt=""int"">0</Timestamp><DateUtc dt:dt=""string"">2017-10-12T10:20:17Z</DateUtc></StartTime><FrequencyChanges><FrequencyChange><Frequency dt:dt=""r8"">2923154</Frequency><Timestamp dt:dt=""r8"">752925822398</Timestamp><Current dt:dt=""r8"">0</Current><DateUtc dt:dt=""string"">2017-10-12T10:20:17Z</DateUtc></FrequencyChange></FrequencyChanges></Clock>\n",Individual-005-1,59.96,?,1.0.0.481,1,1307112635,Professional,2.0.10.353,2.0.10.353,10/12/2017,12/10/2017 10:20,11:20:17,2.0.10.248,1,1,1,1,M1,List1,3,3,1,3,NULL,NULL,NULL,b1,BlockList1,24,59,2,24,w,NULL,NULL,NULL,NULL,NULL,NULL,NULL,NULL,NULL,TrialProc4,b1trails1,red,w,1,w,343
Individual,5,1,"<?xml version=""1.0""?>\n<Clock xmlns:dt=""urn:schemas-microsoft-com:datatypes""><Description dt:dt=""string"">E-Prime Primary Realtime Clock</Description><StartTime><Timestamp dt:dt=""int"">0</Timestamp><DateUtc dt:dt=""string"">2017-10-12T10:20:17Z</DateUtc></StartTime><FrequencyChanges><FrequencyChange><Frequency dt:dt=""r8"">2923154</Frequency><Timestamp dt:dt=""r8"">752925822398</Timestamp><Current dt:dt=""r8"">0</Current><DateUtc dt:dt=""string"">2017-10-12T10:20:17Z</DateUtc></FrequencyChange></FrequencyChanges></Clock>\n",Individual-005-1,59.96,?,1.0.0.481,1,1307112635,Professional,2.0.10.353,2.0.10.353,10/12/2017,12/10/2017 10:20,11:20:17,2.0.10.248,1,1,1,1,M1,List1,3,3,1,3,NULL,NULL,NULL,b1,BlockList1,25,8,2,25,w,NULL,NULL,NULL,NULL,NULL,NULL,NULL,NULL,NULL,TrialProc4,b1trails1,red,e,1,w,469
Individual,5,1,"<?xml version=""1.0""?>\n<Clock xmlns:dt=""urn:schemas-microsoft-com:datatypes""><Description dt:dt=""string"">E-Prime Primary Realtime Clock</Description><StartTime><Timestamp dt:dt=""int"">0</Timestamp><DateUtc dt:dt=""string"">2017-10-12T10:20:17Z</DateUtc></StartTime><FrequencyChanges><FrequencyChange><Frequency dt:dt=""r8"">2923154</Frequency><Timestamp dt:dt=""r8"">752925822398</Timestamp><Current dt:dt=""r8"">0</Current><DateUtc dt:dt=""string"">2017-10-12T10:20:17Z</DateUtc></FrequencyChange></FrequencyChanges></Clock>\n",Individual-005-1,59.96,?,1.0.0.481,1,1307112635,Professional,2.0.10.353,2.0.10.353,10/12/2017,12/10/2017 10:20,11:20:17,2.0.10.248,1,1,1,1,M1,List1,3,3,1,3,NULL,NULL,NULL,b1,BlockList1,26,95,2,26,w,NULL,NULL,NULL,NULL,NULL,NULL,NULL,NULL,NULL,TrialProc4,b1trails1,red,w,1,w,388
Individual,5,1,"<?xml version=""1.0""?>\n<Clock xmlns:dt=""urn:schemas-microsoft-com:datatypes""><Description dt:dt=""string"">E-Prime Primary Realtime Clock</Description><StartTime><Timestamp dt:dt=""int"">0</Timestamp><DateUtc dt:dt=""string"">2017-10-12T10:20:17Z</DateUtc></StartTime><FrequencyChanges><FrequencyChange><Frequency dt:dt=""r8"">2923154</Frequency><Timestamp dt:dt=""r8"">752925822398</Timestamp><Current dt:dt=""r8"">0</Current><DateUtc dt:dt=""string"">2017-10-12T10:20:17Z</DateUtc></FrequencyChange></FrequencyChanges></Clock>\n",Individual-005-1,59.96,?,1.0.0.481,1,1307112635,Professional,2.0.10.353,2.0.10.353,10/12/2017,12/10/2017 10:20,11:20:17,2.0.10.248,1,1,1,1,M1,List1,3,3,1,3,NULL,NULL,NULL,b1,BlockList1,27,21,2,27,e,NULL,NULL,NULL,NULL,NULL,NULL,NULL,NULL,NULL,TrialProc4,b1trails1,blue,e,1,e,367
Individual,5,1,"<?xml version=""1.0""?>\n<Clock xmlns:dt=""urn:schemas-microsoft-com:datatypes""><Description dt:dt=""string"">E-Prime Primary Realtime Clock</Description><StartTime><Timestamp dt:dt=""int"">0</Timestamp><DateUtc dt:dt=""string"">2017-10-12T10:20:17Z</DateUtc></StartTime><FrequencyChanges><FrequencyChange><Frequency dt:dt=""r8"">2923154</Frequency><Timestamp dt:dt=""r8"">752925822398</Timestamp><Current dt:dt=""r8"">0</Current><DateUtc dt:dt=""string"">2017-10-12T10:20:17Z</DateUtc></FrequencyChange></FrequencyChanges></Clock>\n",Individual-005-1,59.96,?,1.0.0.481,1,1307112635,Professional,2.0.10.353,2.0.10.353,10/12/2017,12/10/2017 10:20,11:20:17,2.0.10.248,1,1,1,1,M1,List1,3,3,1,3,NULL,NULL,NULL,b1,BlockList1,28,24,2,28,w,NULL,NULL,NULL,NULL,NULL,NULL,NULL,NULL,NULL,TrialProc4,b1trails1,red,e,1,w,417
Individual,5,1,"<?xml version=""1.0""?>\n<Clock xmlns:dt=""urn:schemas-microsoft-com:datatypes""><Description dt:dt=""string"">E-Prime Primary Realtime Clock</Description><StartTime><Timestamp dt:dt=""int"">0</Timestamp><DateUtc dt:dt=""string"">2017-10-12T10:20:17Z</DateUtc></StartTime><FrequencyChanges><FrequencyChange><Frequency dt:dt=""r8"">2923154</Frequency><Timestamp dt:dt=""r8"">752925822398</Timestamp><Current dt:dt=""r8"">0</Current><DateUtc dt:dt=""string"">2017-10-12T10:20:17Z</DateUtc></FrequencyChange></FrequencyChanges></Clock>\n",Individual-005-1,59.96,?,1.0.0.481,1,1307112635,Professional,2.0.10.353,2.0.10.353,10/12/2017,12/10/2017 10:20,11:20:17,2.0.10.248,1,1,1,1,M1,List1,3,3,1,3,NULL,NULL,NULL,b1,BlockList1,29,87,2,29,w,NULL,NULL,NULL,NULL,NULL,NULL,NULL,NULL,NULL,TrialProc4,b1trails1,red,w,1,w,450
Individual,5,1,"<?xml version=""1.0""?>\n<Clock xmlns:dt=""urn:schemas-microsoft-com:datatypes""><Description dt:dt=""string"">E-Prime Primary Realtime Clock</Description><StartTime><Timestamp dt:dt=""int"">0</Timestamp><DateUtc dt:dt=""string"">2017-10-12T10:20:17Z</DateUtc></StartTime><FrequencyChanges><FrequencyChange><Frequency dt:dt=""r8"">2923154</Frequency><Timestamp dt:dt=""r8"">752925822398</Timestamp><Current dt:dt=""r8"">0</Current><DateUtc dt:dt=""string"">2017-10-12T10:20:17Z</DateUtc></FrequencyChange></FrequencyChanges></Clock>\n",Individual-005-1,59.96,?,1.0.0.481,1,1307112635,Professional,2.0.10.353,2.0.10.353,10/12/2017,12/10/2017 10:20,11:20:17,2.0.10.248,1,1,1,1,M1,List1,3,3,1,3,NULL,NULL,NULL,b1,BlockList1,30,42,2,30,e,NULL,NULL,NULL,NULL,NULL,NULL,NULL,NULL,NULL,TrialProc4,b1trails1,blue,w,1,e,370
Individual,5,1,"<?xml version=""1.0""?>\n<Clock xmlns:dt=""urn:schemas-microsoft-com:datatypes""><Description dt:dt=""string"">E-Prime Primary Realtime Clock</Description><StartTime><Timestamp dt:dt=""int"">0</Timestamp><DateUtc dt:dt=""string"">2017-10-12T10:20:17Z</DateUtc></StartTime><FrequencyChanges><FrequencyChange><Frequency dt:dt=""r8"">2923154</Frequency><Timestamp dt:dt=""r8"">752925822398</Timestamp><Current dt:dt=""r8"">0</Current><DateUtc dt:dt=""string"">2017-10-12T10:20:17Z</DateUtc></FrequencyChange></FrequencyChanges></Clock>\n",Individual-005-1,59.96,?,1.0.0.481,1,1307112635,Professional,2.0.10.353,2.0.10.353,10/12/2017,12/10/2017 10:20,11:20:17,2.0.10.248,1,1,1,1,M1,List1,3,3,1,3,NULL,NULL,NULL,b1,BlockList1,31,11,2,31,w,NULL,NULL,NULL,NULL,NULL,NULL,NULL,NULL,NULL,TrialProc4,b1trails1,red,w,1,w,397
Individual,5,1,"<?xml version=""1.0""?>\n<Clock xmlns:dt=""urn:schemas-microsoft-com:datatypes""><Description dt:dt=""string"">E-Prime Primary Realtime Clock</Description><StartTime><Timestamp dt:dt=""int"">0</Timestamp><DateUtc dt:dt=""string"">2017-10-12T10:20:17Z</DateUtc></StartTime><FrequencyChanges><FrequencyChange><Frequency dt:dt=""r8"">2923154</Frequency><Timestamp dt:dt=""r8"">752925822398</Timestamp><Current dt:dt=""r8"">0</Current><DateUtc dt:dt=""string"">2017-10-12T10:20:17Z</DateUtc></FrequencyChange></FrequencyChanges></Clock>\n",Individual-005-1,59.96,?,1.0.0.481,1,1307112635,Professional,2.0.10.353,2.0.10.353,10/12/2017,12/10/2017 10:20,11:20:17,2.0.10.248,1,1,1,1,M1,List1,3,3,1,3,NULL,NULL,NULL,b1,BlockList1,32,75,2,32,w,NULL,NULL,NULL,NULL,NULL,NULL,NULL,NULL,NULL,TrialProc4,b1trails1,red,w,1,w,384
Individual,5,1,"<?xml version=""1.0""?>\n<Clock xmlns:dt=""urn:schemas-microsoft-com:datatypes""><Description dt:dt=""string"">E-Prime Primary Realtime Clock</Description><StartTime><Timestamp dt:dt=""int"">0</Timestamp><DateUtc dt:dt=""string"">2017-10-12T10:20:17Z</DateUtc></StartTime><FrequencyChanges><FrequencyChange><Frequency dt:dt=""r8"">2923154</Frequency><Timestamp dt:dt=""r8"">752925822398</Timestamp><Current dt:dt=""r8"">0</Current><DateUtc dt:dt=""string"">2017-10-12T10:20:17Z</DateUtc></FrequencyChange></FrequencyChanges></Clock>\n",Individual-005-1,59.96,?,1.0.0.481,1,1307112635,Professional,2.0.10.353,2.0.10.353,10/12/2017,12/10/2017 10:20,11:20:17,2.0.10.248,1,1,1,1,M1,List1,3,3,1,3,NULL,NULL,NULL,b1,BlockList1,33,13,2,33,e,NULL,NULL,NULL,NULL,NULL,NULL,NULL,NULL,NULL,TrialProc4,b1trails1,blue,e,1,e,453
Individual,5,1,"<?xml version=""1.0""?>\n<Clock xmlns:dt=""urn:schemas-microsoft-com:datatypes""><Description dt:dt=""string"">E-Prime Primary Realtime Clock</Description><StartTime><Timestamp dt:dt=""int"">0</Timestamp><DateUtc dt:dt=""string"">2017-10-12T10:20:17Z</DateUtc></StartTime><FrequencyChanges><FrequencyChange><Frequency dt:dt=""r8"">2923154</Frequency><Timestamp dt:dt=""r8"">752925822398</Timestamp><Current dt:dt=""r8"">0</Current><DateUtc dt:dt=""string"">2017-10-12T10:20:17Z</DateUtc></FrequencyChange></FrequencyChanges></Clock>\n",Individual-005-1,59.96,?,1.0.0.481,1,1307112635,Professional,2.0.10.353,2.0.10.353,10/12/2017,12/10/2017 10:20,11:20:17,2.0.10.248,1,1,1,1,M1,List1,3,3,1,3,NULL,NULL,NULL,b1,BlockList1,34,94,2,34,e,NULL,NULL,NULL,NULL,NULL,NULL,NULL,NULL,NULL,TrialProc4,b1trails1,blue,w,1,e,378
Individual,5,1,"<?xml version=""1.0""?>\n<Clock xmlns:dt=""urn:schemas-microsoft-com:datatypes""><Description dt:dt=""string"">E-Prime Primary Realtime Clock</Description><StartTime><Timestamp dt:dt=""int"">0</Timestamp><DateUtc dt:dt=""string"">2017-10-12T10:20:17Z</DateUtc></StartTime><FrequencyChanges><FrequencyChange><Frequency dt:dt=""r8"">2923154</Frequency><Timestamp dt:dt=""r8"">752925822398</Timestamp><Current dt:dt=""r8"">0</Current><DateUtc dt:dt=""string"">2017-10-12T10:20:17Z</DateUtc></FrequencyChange></FrequencyChanges></Clock>\n",Individual-005-1,59.96,?,1.0.0.481,1,1307112635,Professional,2.0.10.353,2.0.10.353,10/12/2017,12/10/2017 10:20,11:20:17,2.0.10.248,1,1,1,1,M1,List1,3,3,1,3,NULL,NULL,NULL,b1,BlockList1,35,32,2,35,w,NULL,NULL,NULL,NULL,NULL,NULL,NULL,NULL,NULL,TrialProc4,b1trails1,red,e,1,w,407
Individual,5,1,"<?xml version=""1.0""?>\n<Clock xmlns:dt=""urn:schemas-microsoft-com:datatypes""><Description dt:dt=""string"">E-Prime Primary Realtime Clock</Description><StartTime><Timestamp dt:dt=""int"">0</Timestamp><DateUtc dt:dt=""string"">2017-10-12T10:20:17Z</DateUtc></StartTime><FrequencyChanges><FrequencyChange><Frequency dt:dt=""r8"">2923154</Frequency><Timestamp dt:dt=""r8"">752925822398</Timestamp><Current dt:dt=""r8"">0</Current><DateUtc dt:dt=""string"">2017-10-12T10:20:17Z</DateUtc></FrequencyChange></FrequencyChanges></Clock>\n",Individual-005-1,59.96,?,1.0.0.481,1,1307112635,Professional,2.0.10.353,2.0.10.353,10/12/2017,12/10/2017 10:20,11:20:17,2.0.10.248,1,1,1,1,M1,List1,3,3,1,3,NULL,NULL,NULL,b1,BlockList1,36,7,2,36,w,NULL,NULL,NULL,NULL,NULL,NULL,NULL,NULL,NULL,TrialProc4,b1trails1,red,w,1,w,327
Individual,5,1,"<?xml version=""1.0""?>\n<Clock xmlns:dt=""urn:schemas-microsoft-com:datatypes""><Description dt:dt=""string"">E-Prime Primary Realtime Clock</Description><StartTime><Timestamp dt:dt=""int"">0</Timestamp><DateUtc dt:dt=""string"">2017-10-12T10:20:17Z</DateUtc></StartTime><FrequencyChanges><FrequencyChange><Frequency dt:dt=""r8"">2923154</Frequency><Timestamp dt:dt=""r8"">752925822398</Timestamp><Current dt:dt=""r8"">0</Current><DateUtc dt:dt=""string"">2017-10-12T10:20:17Z</DateUtc></FrequencyChange></FrequencyChanges></Clock>\n",Individual-005-1,59.96,?,1.0.0.481,1,1307112635,Professional,2.0.10.353,2.0.10.353,10/12/2017,12/10/2017 10:20,11:20:17,2.0.10.248,1,1,1,1,M1,List1,3,3,1,3,NULL,NULL,NULL,b1,BlockList1,37,48,2,37,w,NULL,NULL,NULL,NULL,NULL,NULL,NULL,NULL,NULL,TrialProc4,b1trails1,red,e,1,w,401
Individual,5,1,"<?xml version=""1.0""?>\n<Clock xmlns:dt=""urn:schemas-microsoft-com:datatypes""><Description dt:dt=""string"">E-Prime Primary Realtime Clock</Description><StartTime><Timestamp dt:dt=""int"">0</Timestamp><DateUtc dt:dt=""string"">2017-10-12T10:20:17Z</DateUtc></StartTime><FrequencyChanges><FrequencyChange><Frequency dt:dt=""r8"">2923154</Frequency><Timestamp dt:dt=""r8"">752925822398</Timestamp><Current dt:dt=""r8"">0</Current><DateUtc dt:dt=""string"">2017-10-12T10:20:17Z</DateUtc></FrequencyChange></FrequencyChanges></Clock>\n",Individual-005-1,59.96,?,1.0.0.481,1,1307112635,Professional,2.0.10.353,2.0.10.353,10/12/2017,12/10/2017 10:20,11:20:17,2.0.10.248,1,1,1,1,M1,List1,3,3,1,3,NULL,NULL,NULL,b1,BlockList1,38,60,2,38,w,NULL,NULL,NULL,NULL,NULL,NULL,NULL,NULL,NULL,TrialProc4,b1trails1,red,e,1,w,367
Individual,5,1,"<?xml version=""1.0""?>\n<Clock xmlns:dt=""urn:schemas-microsoft-com:datatypes""><Description dt:dt=""string"">E-Prime Primary Realtime Clock</Description><StartTime><Timestamp dt:dt=""int"">0</Timestamp><DateUtc dt:dt=""string"">2017-10-12T10:20:17Z</DateUtc></StartTime><FrequencyChanges><FrequencyChange><Frequency dt:dt=""r8"">2923154</Frequency><Timestamp dt:dt=""r8"">752925822398</Timestamp><Current dt:dt=""r8"">0</Current><DateUtc dt:dt=""string"">2017-10-12T10:20:17Z</DateUtc></FrequencyChange></FrequencyChanges></Clock>\n",Individual-005-1,59.96,?,1.0.0.481,1,1307112635,Professional,2.0.10.353,2.0.10.353,10/12/2017,12/10/2017 10:20,11:20:17,2.0.10.248,1,1,1,1,M1,List1,3,3,1,3,NULL,NULL,NULL,b1,BlockList1,39,2,2,39,e,NULL,NULL,NULL,NULL,NULL,NULL,NULL,NULL,NULL,TrialProc4,b1trails1,blue,w,1,e,447
Individual,5,1,"<?xml version=""1.0""?>\n<Clock xmlns:dt=""urn:schemas-microsoft-com:datatypes""><Description dt:dt=""string"">E-Prime Primary Realtime Clock</Description><StartTime><Timestamp dt:dt=""int"">0</Timestamp><DateUtc dt:dt=""string"">2017-10-12T10:20:17Z</DateUtc></StartTime><FrequencyChanges><FrequencyChange><Frequency dt:dt=""r8"">2923154</Frequency><Timestamp dt:dt=""r8"">752925822398</Timestamp><Current dt:dt=""r8"">0</Current><DateUtc dt:dt=""string"">2017-10-12T10:20:17Z</DateUtc></FrequencyChange></FrequencyChanges></Clock>\n",Individual-005-1,59.96,?,1.0.0.481,1,1307112635,Professional,2.0.10.353,2.0.10.353,10/12/2017,12/10/2017 10:20,11:20:17,2.0.10.248,1,1,1,1,M1,List1,3,3,1,3,NULL,NULL,NULL,b1,BlockList1,40,22,2,40,e,NULL,NULL,NULL,NULL,NULL,NULL,NULL,NULL,NULL,TrialProc4,b1trails1,blue,w,1,e,472
Individual,5,1,"<?xml version=""1.0""?>\n<Clock xmlns:dt=""urn:schemas-microsoft-com:datatypes""><Description dt:dt=""string"">E-Prime Primary Realtime Clock</Description><StartTime><Timestamp dt:dt=""int"">0</Timestamp><DateUtc dt:dt=""string"">2017-10-12T10:20:17Z</DateUtc></StartTime><FrequencyChanges><FrequencyChange><Frequency dt:dt=""r8"">2923154</Frequency><Timestamp dt:dt=""r8"">752925822398</Timestamp><Current dt:dt=""r8"">0</Current><DateUtc dt:dt=""string"">2017-10-12T10:20:17Z</DateUtc></FrequencyChange></FrequencyChanges></Clock>\n",Individual-005-1,59.96,?,1.0.0.481,1,1307112635,Professional,2.0.10.353,2.0.10.353,10/12/2017,12/10/2017 10:20,11:20:17,2.0.10.248,1,1,1,1,M1,List1,3,3,1,3,NULL,NULL,NULL,b1,BlockList1,41,50,2,41,e,NULL,NULL,NULL,NULL,NULL,NULL,NULL,NULL,NULL,TrialProc4,b1trails1,blue,w,1,e,491
Individual,5,1,"<?xml version=""1.0""?>\n<Clock xmlns:dt=""urn:schemas-microsoft-com:datatypes""><Description dt:dt=""string"">E-Prime Primary Realtime Clock</Description><StartTime><Timestamp dt:dt=""int"">0</Timestamp><DateUtc dt:dt=""string"">2017-10-12T10:20:17Z</DateUtc></StartTime><FrequencyChanges><FrequencyChange><Frequency dt:dt=""r8"">2923154</Frequency><Timestamp dt:dt=""r8"">752925822398</Timestamp><Current dt:dt=""r8"">0</Current><DateUtc dt:dt=""string"">2017-10-12T10:20:17Z</DateUtc></FrequencyChange></FrequencyChanges></Clock>\n",Individual-005-1,59.96,?,1.0.0.481,1,1307112635,Professional,2.0.10.353,2.0.10.353,10/12/2017,12/10/2017 10:20,11:20:17,2.0.10.248,1,1,1,1,M1,List1,3,3,1,3,NULL,NULL,NULL,b1,BlockList1,42,76,2,42,w,NULL,NULL,NULL,NULL,NULL,NULL,NULL,NULL,NULL,TrialProc4,b1trails1,red,e,1,w,748
Individual,5,1,"<?xml version=""1.0""?>\n<Clock xmlns:dt=""urn:schemas-microsoft-com:datatypes""><Description dt:dt=""string"">E-Prime Primary Realtime Clock</Description><StartTime><Timestamp dt:dt=""int"">0</Timestamp><DateUtc dt:dt=""string"">2017-10-12T10:20:17Z</DateUtc></StartTime><FrequencyChanges><FrequencyChange><Frequency dt:dt=""r8"">2923154</Frequency><Timestamp dt:dt=""r8"">752925822398</Timestamp><Current dt:dt=""r8"">0</Current><DateUtc dt:dt=""string"">2017-10-12T10:20:17Z</DateUtc></FrequencyChange></FrequencyChanges></Clock>\n",Individual-005-1,59.96,?,1.0.0.481,1,1307112635,Professional,2.0.10.353,2.0.10.353,10/12/2017,12/10/2017 10:20,11:20:17,2.0.10.248,1,1,1,1,M1,List1,3,3,1,3,NULL,NULL,NULL,b1,BlockList1,43,53,2,43,e,NULL,NULL,NULL,NULL,NULL,NULL,NULL,NULL,NULL,TrialProc4,b1trails1,blue,e,1,e,330
Individual,5,1,"<?xml version=""1.0""?>\n<Clock xmlns:dt=""urn:schemas-microsoft-com:datatypes""><Description dt:dt=""string"">E-Prime Primary Realtime Clock</Description><StartTime><Timestamp dt:dt=""int"">0</Timestamp><DateUtc dt:dt=""string"">2017-10-12T10:20:17Z</DateUtc></StartTime><FrequencyChanges><FrequencyChange><Frequency dt:dt=""r8"">2923154</Frequency><Timestamp dt:dt=""r8"">752925822398</Timestamp><Current dt:dt=""r8"">0</Current><DateUtc dt:dt=""string"">2017-10-12T10:20:17Z</DateUtc></FrequencyChange></FrequencyChanges></Clock>\n",Individual-005-1,59.96,?,1.0.0.481,1,1307112635,Professional,2.0.10.353,2.0.10.353,10/12/2017,12/10/2017 10:20,11:20:17,2.0.10.248,1,1,1,1,M1,List1,3,3,1,3,NULL,NULL,NULL,b1,BlockList1,44,34,2,44,e,NULL,NULL,NULL,NULL,NULL,NULL,NULL,NULL,NULL,TrialProc4,b1trails1,blue,w,1,e,445
Individual,5,1,"<?xml version=""1.0""?>\n<Clock xmlns:dt=""urn:schemas-microsoft-com:datatypes""><Description dt:dt=""string"">E-Prime Primary Realtime Clock</Description><StartTime><Timestamp dt:dt=""int"">0</Timestamp><DateUtc dt:dt=""string"">2017-10-12T10:20:17Z</DateUtc></StartTime><FrequencyChanges><FrequencyChange><Frequency dt:dt=""r8"">2923154</Frequency><Timestamp dt:dt=""r8"">752925822398</Timestamp><Current dt:dt=""r8"">0</Current><DateUtc dt:dt=""string"">2017-10-12T10:20:17Z</DateUtc></FrequencyChange></FrequencyChanges></Clock>\n",Individual-005-1,59.96,?,1.0.0.481,1,1307112635,Professional,2.0.10.353,2.0.10.353,10/12/2017,12/10/2017 10:20,11:20:17,2.0.10.248,1,1,1,1,M1,List1,3,3,1,3,NULL,NULL,NULL,b1,BlockList1,45,15,2,45,w,NULL,NULL,NULL,NULL,NULL,NULL,NULL,NULL,NULL,TrialProc4,b1trails1,red,w,1,w,500
Individual,5,1,"<?xml version=""1.0""?>\n<Clock xmlns:dt=""urn:schemas-microsoft-com:datatypes""><Description dt:dt=""string"">E-Prime Primary Realtime Clock</Description><StartTime><Timestamp dt:dt=""int"">0</Timestamp><DateUtc dt:dt=""string"">2017-10-12T10:20:17Z</DateUtc></StartTime><FrequencyChanges><FrequencyChange><Frequency dt:dt=""r8"">2923154</Frequency><Timestamp dt:dt=""r8"">752925822398</Timestamp><Current dt:dt=""r8"">0</Current><DateUtc dt:dt=""string"">2017-10-12T10:20:17Z</DateUtc></FrequencyChange></FrequencyChanges></Clock>\n",Individual-005-1,59.96,?,1.0.0.481,1,1307112635,Professional,2.0.10.353,2.0.10.353,10/12/2017,12/10/2017 10:20,11:20:17,2.0.10.248,1,1,1,1,M1,List1,3,3,1,3,NULL,NULL,NULL,b1,BlockList1,46,26,2,46,e,NULL,NULL,NULL,NULL,NULL,NULL,NULL,NULL,NULL,TrialProc4,b1trails1,blue,w,1,e,386
Individual,5,1,"<?xml version=""1.0""?>\n<Clock xmlns:dt=""urn:schemas-microsoft-com:datatypes""><Description dt:dt=""string"">E-Prime Primary Realtime Clock</Description><StartTime><Timestamp dt:dt=""int"">0</Timestamp><DateUtc dt:dt=""string"">2017-10-12T10:20:17Z</DateUtc></StartTime><FrequencyChanges><FrequencyChange><Frequency dt:dt=""r8"">2923154</Frequency><Timestamp dt:dt=""r8"">752925822398</Timestamp><Current dt:dt=""r8"">0</Current><DateUtc dt:dt=""string"">2017-10-12T10:20:17Z</DateUtc></FrequencyChange></FrequencyChanges></Clock>\n",Individual-005-1,59.96,?,1.0.0.481,1,1307112635,Professional,2.0.10.353,2.0.10.353,10/12/2017,12/10/2017 10:20,11:20:17,2.0.10.248,1,1,1,1,M1,List1,3,3,1,3,NULL,NULL,NULL,b1,BlockList1,47,47,2,47,w,NULL,NULL,NULL,NULL,NULL,NULL,NULL,NULL,NULL,TrialProc4,b1trails1,red,w,1,w,440
Individual,5,1,"<?xml version=""1.0""?>\n<Clock xmlns:dt=""urn:schemas-microsoft-com:datatypes""><Description dt:dt=""string"">E-Prime Primary Realtime Clock</Description><StartTime><Timestamp dt:dt=""int"">0</Timestamp><DateUtc dt:dt=""string"">2017-10-12T10:20:17Z</DateUtc></StartTime><FrequencyChanges><FrequencyChange><Frequency dt:dt=""r8"">2923154</Frequency><Timestamp dt:dt=""r8"">752925822398</Timestamp><Current dt:dt=""r8"">0</Current><DateUtc dt:dt=""string"">2017-10-12T10:20:17Z</DateUtc></FrequencyChange></FrequencyChanges></Clock>\n",Individual-005-1,59.96,?,1.0.0.481,1,1307112635,Professional,2.0.10.353,2.0.10.353,10/12/2017,12/10/2017 10:20,11:20:17,2.0.10.248,1,1,1,1,M1,List1,3,3,1,3,NULL,NULL,NULL,b1,BlockList1,48,67,2,48,w,NULL,NULL,NULL,NULL,NULL,NULL,NULL,NULL,NULL,TrialProc4,b1trails1,red,w,1,w,312
Individual,5,1,"<?xml version=""1.0""?>\n<Clock xmlns:dt=""urn:schemas-microsoft-com:datatypes""><Description dt:dt=""string"">E-Prime Primary Realtime Clock</Description><StartTime><Timestamp dt:dt=""int"">0</Timestamp><DateUtc dt:dt=""string"">2017-10-12T10:20:17Z</DateUtc></StartTime><FrequencyChanges><FrequencyChange><Frequency dt:dt=""r8"">2923154</Frequency><Timestamp dt:dt=""r8"">752925822398</Timestamp><Current dt:dt=""r8"">0</Current><DateUtc dt:dt=""string"">2017-10-12T10:20:17Z</DateUtc></FrequencyChange></FrequencyChanges></Clock>\n",Individual-005-1,59.96,?,1.0.0.481,1,1307112635,Professional,2.0.10.353,2.0.10.353,10/12/2017,12/10/2017 10:20,11:20:17,2.0.10.248,1,1,1,1,M1,List1,3,3,1,3,NULL,NULL,NULL,b1,BlockList1,49,91,2,49,w,NULL,NULL,NULL,NULL,NULL,NULL,NULL,NULL,NULL,TrialProc4,b1trails1,red,w,1,w,370
Individual,5,1,"<?xml version=""1.0""?>\n<Clock xmlns:dt=""urn:schemas-microsoft-com:datatypes""><Description dt:dt=""string"">E-Prime Primary Realtime Clock</Description><StartTime><Timestamp dt:dt=""int"">0</Timestamp><DateUtc dt:dt=""string"">2017-10-12T10:20:17Z</DateUtc></StartTime><FrequencyChanges><FrequencyChange><Frequency dt:dt=""r8"">2923154</Frequency><Timestamp dt:dt=""r8"">752925822398</Timestamp><Current dt:dt=""r8"">0</Current><DateUtc dt:dt=""string"">2017-10-12T10:20:17Z</DateUtc></FrequencyChange></FrequencyChanges></Clock>\n",Individual-005-1,59.96,?,1.0.0.481,1,1307112635,Professional,2.0.10.353,2.0.10.353,10/12/2017,12/10/2017 10:20,11:20:17,2.0.10.248,1,1,1,1,M1,List1,3,3,1,3,NULL,NULL,NULL,b1,BlockList1,50,31,2,50,w,NULL,NULL,NULL,NULL,NULL,NULL,NULL,NULL,NULL,TrialProc4,b1trails1,red,w,1,w,404
Individual,5,1,"<?xml version=""1.0""?>\n<Clock xmlns:dt=""urn:schemas-microsoft-com:datatypes""><Description dt:dt=""string"">E-Prime Primary Realtime Clock</Description><StartTime><Timestamp dt:dt=""int"">0</Timestamp><DateUtc dt:dt=""string"">2017-10-12T10:20:17Z</DateUtc></StartTime><FrequencyChanges><FrequencyChange><Frequency dt:dt=""r8"">2923154</Frequency><Timestamp dt:dt=""r8"">752925822398</Timestamp><Current dt:dt=""r8"">0</Current><DateUtc dt:dt=""string"">2017-10-12T10:20:17Z</DateUtc></FrequencyChange></FrequencyChanges></Clock>\n",Individual-005-1,59.96,?,1.0.0.481,1,1307112635,Professional,2.0.10.353,2.0.10.353,10/12/2017,12/10/2017 10:20,11:20:17,2.0.10.248,1,1,1,1,M1,List1,3,3,1,3,NULL,NULL,NULL,b1,BlockList1,51,61,2,51,e,NULL,NULL,NULL,NULL,NULL,NULL,NULL,NULL,NULL,TrialProc4,b1trails1,blue,e,1,e,293
Individual,5,1,"<?xml version=""1.0""?>\n<Clock xmlns:dt=""urn:schemas-microsoft-com:datatypes""><Description dt:dt=""string"">E-Prime Primary Realtime Clock</Description><StartTime><Timestamp dt:dt=""int"">0</Timestamp><DateUtc dt:dt=""string"">2017-10-12T10:20:17Z</DateUtc></StartTime><FrequencyChanges><FrequencyChange><Frequency dt:dt=""r8"">2923154</Frequency><Timestamp dt:dt=""r8"">752925822398</Timestamp><Current dt:dt=""r8"">0</Current><DateUtc dt:dt=""string"">2017-10-12T10:20:17Z</DateUtc></FrequencyChange></FrequencyChanges></Clock>\n",Individual-005-1,59.96,?,1.0.0.481,1,1307112635,Professional,2.0.10.353,2.0.10.353,10/12/2017,12/10/2017 10:20,11:20:17,2.0.10.248,1,1,1,1,M1,List1,3,3,1,3,NULL,NULL,NULL,b1,BlockList1,52,72,2,52,w,NULL,NULL,NULL,NULL,NULL,NULL,NULL,NULL,NULL,TrialProc4,b1trails1,red,e,1,w,385
Individual,5,1,"<?xml version=""1.0""?>\n<Clock xmlns:dt=""urn:schemas-microsoft-com:datatypes""><Description dt:dt=""string"">E-Prime Primary Realtime Clock</Description><StartTime><Timestamp dt:dt=""int"">0</Timestamp><DateUtc dt:dt=""string"">2017-10-12T10:20:17Z</DateUtc></StartTime><FrequencyChanges><FrequencyChange><Frequency dt:dt=""r8"">2923154</Frequency><Timestamp dt:dt=""r8"">752925822398</Timestamp><Current dt:dt=""r8"">0</Current><DateUtc dt:dt=""string"">2017-10-12T10:20:17Z</DateUtc></FrequencyChange></FrequencyChanges></Clock>\n",Individual-005-1,59.96,?,1.0.0.481,1,1307112635,Professional,2.0.10.353,2.0.10.353,10/12/2017,12/10/2017 10:20,11:20:17,2.0.10.248,1,1,1,1,M1,List1,3,3,1,3,NULL,NULL,NULL,b1,BlockList1,53,84,2,53,w,NULL,NULL,NULL,NULL,NULL,NULL,NULL,NULL,NULL,TrialProc4,b1trails1,red,e,1,w,395
Individual,5,1,"<?xml version=""1.0""?>\n<Clock xmlns:dt=""urn:schemas-microsoft-com:datatypes""><Description dt:dt=""string"">E-Prime Primary Realtime Clock</Description><StartTime><Timestamp dt:dt=""int"">0</Timestamp><DateUtc dt:dt=""string"">2017-10-12T10:20:17Z</DateUtc></StartTime><FrequencyChanges><FrequencyChange><Frequency dt:dt=""r8"">2923154</Frequency><Timestamp dt:dt=""r8"">752925822398</Timestamp><Current dt:dt=""r8"">0</Current><DateUtc dt:dt=""string"">2017-10-12T10:20:17Z</DateUtc></FrequencyChange></FrequencyChanges></Clock>\n",Individual-005-1,59.96,?,1.0.0.481,1,1307112635,Professional,2.0.10.353,2.0.10.353,10/12/2017,12/10/2017 10:20,11:20:17,2.0.10.248,1,1,1,1,M1,List1,3,3,1,3,NULL,NULL,NULL,b1,BlockList1,54,44,2,54,w,NULL,NULL,NULL,NULL,NULL,NULL,NULL,NULL,NULL,TrialProc4,b1trails1,red,e,1,w,371
Individual,5,1,"<?xml version=""1.0""?>\n<Clock xmlns:dt=""urn:schemas-microsoft-com:datatypes""><Description dt:dt=""string"">E-Prime Primary Realtime Clock</Description><StartTime><Timestamp dt:dt=""int"">0</Timestamp><DateUtc dt:dt=""string"">2017-10-12T10:20:17Z</DateUtc></StartTime><FrequencyChanges><FrequencyChange><Frequency dt:dt=""r8"">2923154</Frequency><Timestamp dt:dt=""r8"">752925822398</Timestamp><Current dt:dt=""r8"">0</Current><DateUtc dt:dt=""string"">2017-10-12T10:20:17Z</DateUtc></FrequencyChange></FrequencyChanges></Clock>\n",Individual-005-1,59.96,?,1.0.0.481,1,1307112635,Professional,2.0.10.353,2.0.10.353,10/12/2017,12/10/2017 10:20,11:20:17,2.0.10.248,1,1,1,1,M1,List1,3,3,1,3,NULL,NULL,NULL,b1,BlockList1,55,33,2,55,e,NULL,NULL,NULL,NULL,NULL,NULL,NULL,NULL,NULL,TrialProc4,b1trails1,blue,e,1,e,436
Individual,5,1,"<?xml version=""1.0""?>\n<Clock xmlns:dt=""urn:schemas-microsoft-com:datatypes""><Description dt:dt=""string"">E-Prime Primary Realtime Clock</Description><StartTime><Timestamp dt:dt=""int"">0</Timestamp><DateUtc dt:dt=""string"">2017-10-12T10:20:17Z</DateUtc></StartTime><FrequencyChanges><FrequencyChange><Frequency dt:dt=""r8"">2923154</Frequency><Timestamp dt:dt=""r8"">752925822398</Timestamp><Current dt:dt=""r8"">0</Current><DateUtc dt:dt=""string"">2017-10-12T10:20:17Z</DateUtc></FrequencyChange></FrequencyChanges></Clock>\n",Individual-005-1,59.96,?,1.0.0.481,1,1307112635,Professional,2.0.10.353,2.0.10.353,10/12/2017,12/10/2017 10:20,11:20:17,2.0.10.248,1,1,1,1,M1,List1,3,3,1,3,NULL,NULL,NULL,b1,BlockList1,56,78,2,56,e,NULL,NULL,NULL,NULL,NULL,NULL,NULL,NULL,NULL,TrialProc4,b1trails1,blue,w,1,e,405
Individual,5,1,"<?xml version=""1.0""?>\n<Clock xmlns:dt=""urn:schemas-microsoft-com:datatypes""><Description dt:dt=""string"">E-Prime Primary Realtime Clock</Description><StartTime><Timestamp dt:dt=""int"">0</Timestamp><DateUtc dt:dt=""string"">2017-10-12T10:20:17Z</DateUtc></StartTime><FrequencyChanges><FrequencyChange><Frequency dt:dt=""r8"">2923154</Frequency><Timestamp dt:dt=""r8"">752925822398</Timestamp><Current dt:dt=""r8"">0</Current><DateUtc dt:dt=""string"">2017-10-12T10:20:17Z</DateUtc></FrequencyChange></FrequencyChanges></Clock>\n",Individual-005-1,59.96,?,1.0.0.481,1,1307112635,Professional,2.0.10.353,2.0.10.353,10/12/2017,12/10/2017 10:20,11:20:17,2.0.10.248,1,1,1,1,M1,List1,3,3,1,3,NULL,NULL,NULL,b1,BlockList1,57,64,2,57,w,NULL,NULL,NULL,NULL,NULL,NULL,NULL,NULL,NULL,TrialProc4,b1trails1,red,e,1,w,421
Individual,5,1,"<?xml version=""1.0""?>\n<Clock xmlns:dt=""urn:schemas-microsoft-com:datatypes""><Description dt:dt=""string"">E-Prime Primary Realtime Clock</Description><StartTime><Timestamp dt:dt=""int"">0</Timestamp><DateUtc dt:dt=""string"">2017-10-12T10:20:17Z</DateUtc></StartTime><FrequencyChanges><FrequencyChange><Frequency dt:dt=""r8"">2923154</Frequency><Timestamp dt:dt=""r8"">752925822398</Timestamp><Current dt:dt=""r8"">0</Current><DateUtc dt:dt=""string"">2017-10-12T10:20:17Z</DateUtc></FrequencyChange></FrequencyChanges></Clock>\n",Individual-005-1,59.96,?,1.0.0.481,1,1307112635,Professional,2.0.10.353,2.0.10.353,10/12/2017,12/10/2017 10:20,11:20:17,2.0.10.248,1,1,1,1,M1,List1,3,3,1,3,NULL,NULL,NULL,b1,BlockList1,58,58,2,58,e,NULL,NULL,NULL,NULL,NULL,NULL,NULL,NULL,NULL,TrialProc4,b1trails1,blue,w,1,e,470
Individual,5,1,"<?xml version=""1.0""?>\n<Clock xmlns:dt=""urn:schemas-microsoft-com:datatypes""><Description dt:dt=""string"">E-Prime Primary Realtime Clock</Description><StartTime><Timestamp dt:dt=""int"">0</Timestamp><DateUtc dt:dt=""string"">2017-10-12T10:20:17Z</DateUtc></StartTime><FrequencyChanges><FrequencyChange><Frequency dt:dt=""r8"">2923154</Frequency><Timestamp dt:dt=""r8"">752925822398</Timestamp><Current dt:dt=""r8"">0</Current><DateUtc dt:dt=""string"">2017-10-12T10:20:17Z</DateUtc></FrequencyChange></FrequencyChanges></Clock>\n",Individual-005-1,59.96,?,1.0.0.481,1,1307112635,Professional,2.0.10.353,2.0.10.353,10/12/2017,12/10/2017 10:20,11:20:17,2.0.10.248,1,1,1,1,M1,List1,3,3,1,3,NULL,NULL,NULL,b1,BlockList1,59,46,2,59,e,NULL,NULL,NULL,NULL,NULL,NULL,NULL,NULL,NULL,TrialProc4,b1trails1,blue,w,1,e,444
Individual,5,1,"<?xml version=""1.0""?>\n<Clock xmlns:dt=""urn:schemas-microsoft-com:datatypes""><Description dt:dt=""string"">E-Prime Primary Realtime Clock</Description><StartTime><Timestamp dt:dt=""int"">0</Timestamp><DateUtc dt:dt=""string"">2017-10-12T10:20:17Z</DateUtc></StartTime><FrequencyChanges><FrequencyChange><Frequency dt:dt=""r8"">2923154</Frequency><Timestamp dt:dt=""r8"">752925822398</Timestamp><Current dt:dt=""r8"">0</Current><DateUtc dt:dt=""string"">2017-10-12T10:20:17Z</DateUtc></FrequencyChange></FrequencyChanges></Clock>\n",Individual-005-1,59.96,?,1.0.0.481,1,1307112635,Professional,2.0.10.353,2.0.10.353,10/12/2017,12/10/2017 10:20,11:20:17,2.0.10.248,1,1,1,1,M1,List1,3,3,1,3,NULL,NULL,NULL,b1,BlockList1,60,6,2,60,e,NULL,NULL,NULL,NULL,NULL,NULL,NULL,NULL,NULL,TrialProc4,b1trails1,blue,w,1,e,398
Individual,5,1,"<?xml version=""1.0""?>\n<Clock xmlns:dt=""urn:schemas-microsoft-com:datatypes""><Description dt:dt=""string"">E-Prime Primary Realtime Clock</Description><StartTime><Timestamp dt:dt=""int"">0</Timestamp><DateUtc dt:dt=""string"">2017-10-12T10:20:17Z</DateUtc></StartTime><FrequencyChanges><FrequencyChange><Frequency dt:dt=""r8"">2923154</Frequency><Timestamp dt:dt=""r8"">752925822398</Timestamp><Current dt:dt=""r8"">0</Current><DateUtc dt:dt=""string"">2017-10-12T10:20:17Z</DateUtc></FrequencyChange></FrequencyChanges></Clock>\n",Individual-005-1,59.96,?,1.0.0.481,1,1307112635,Professional,2.0.10.353,2.0.10.353,10/12/2017,12/10/2017 10:20,11:20:17,2.0.10.248,1,1,1,1,M1,List1,3,3,1,3,NULL,NULL,NULL,b1,BlockList1,61,51,2,61,w,NULL,NULL,NULL,NULL,NULL,NULL,NULL,NULL,NULL,TrialProc4,b1trails1,red,w,1,w,552
Individual,5,1,"<?xml version=""1.0""?>\n<Clock xmlns:dt=""urn:schemas-microsoft-com:datatypes""><Description dt:dt=""string"">E-Prime Primary Realtime Clock</Description><StartTime><Timestamp dt:dt=""int"">0</Timestamp><DateUtc dt:dt=""string"">2017-10-12T10:20:17Z</DateUtc></StartTime><FrequencyChanges><FrequencyChange><Frequency dt:dt=""r8"">2923154</Frequency><Timestamp dt:dt=""r8"">752925822398</Timestamp><Current dt:dt=""r8"">0</Current><DateUtc dt:dt=""string"">2017-10-12T10:20:17Z</DateUtc></FrequencyChange></FrequencyChanges></Clock>\n",Individual-005-1,59.96,?,1.0.0.481,1,1307112635,Professional,2.0.10.353,2.0.10.353,10/12/2017,12/10/2017 10:20,11:20:17,2.0.10.248,1,1,1,1,M1,List1,3,3,1,3,NULL,NULL,NULL,b1,BlockList1,62,93,2,62,e,NULL,NULL,NULL,NULL,NULL,NULL,NULL,NULL,NULL,TrialProc4,b1trails1,blue,e,1,e,359
Individual,5,1,"<?xml version=""1.0""?>\n<Clock xmlns:dt=""urn:schemas-microsoft-com:datatypes""><Description dt:dt=""string"">E-Prime Primary Realtime Clock</Description><StartTime><Timestamp dt:dt=""int"">0</Timestamp><DateUtc dt:dt=""string"">2017-10-12T10:20:17Z</DateUtc></StartTime><FrequencyChanges><FrequencyChange><Frequency dt:dt=""r8"">2923154</Frequency><Timestamp dt:dt=""r8"">752925822398</Timestamp><Current dt:dt=""r8"">0</Current><DateUtc dt:dt=""string"">2017-10-12T10:20:17Z</DateUtc></FrequencyChange></FrequencyChanges></Clock>\n",Individual-005-1,59.96,?,1.0.0.481,1,1307112635,Professional,2.0.10.353,2.0.10.353,10/12/2017,12/10/2017 10:20,11:20:17,2.0.10.248,1,1,1,1,M1,List1,3,3,1,3,NULL,NULL,NULL,b1,BlockList1,63,70,2,63,e,NULL,NULL,NULL,NULL,NULL,NULL,NULL,NULL,NULL,TrialProc4,b1trails1,blue,w,1,e,422
Individual,5,1,"<?xml version=""1.0""?>\n<Clock xmlns:dt=""urn:schemas-microsoft-com:datatypes""><Description dt:dt=""string"">E-Prime Primary Realtime Clock</Description><StartTime><Timestamp dt:dt=""int"">0</Timestamp><DateUtc dt:dt=""string"">2017-10-12T10:20:17Z</DateUtc></StartTime><FrequencyChanges><FrequencyChange><Frequency dt:dt=""r8"">2923154</Frequency><Timestamp dt:dt=""r8"">752925822398</Timestamp><Current dt:dt=""r8"">0</Current><DateUtc dt:dt=""string"">2017-10-12T10:20:17Z</DateUtc></FrequencyChange></FrequencyChanges></Clock>\n",Individual-005-1,59.96,?,1.0.0.481,1,1307112635,Professional,2.0.10.353,2.0.10.353,10/12/2017,12/10/2017 10:20,11:20:17,2.0.10.248,1,1,1,1,M1,List1,3,3,1,3,NULL,NULL,NULL,b1,BlockList1,64,56,2,64,w,NULL,NULL,NULL,NULL,NULL,NULL,NULL,NULL,NULL,TrialProc4,b1trails1,red,e,1,w,517
Individual,5,1,"<?xml version=""1.0""?>\n<Clock xmlns:dt=""urn:schemas-microsoft-com:datatypes""><Description dt:dt=""string"">E-Prime Primary Realtime Clock</Description><StartTime><Timestamp dt:dt=""int"">0</Timestamp><DateUtc dt:dt=""string"">2017-10-12T10:20:17Z</DateUtc></StartTime><FrequencyChanges><FrequencyChange><Frequency dt:dt=""r8"">2923154</Frequency><Timestamp dt:dt=""r8"">752925822398</Timestamp><Current dt:dt=""r8"">0</Current><DateUtc dt:dt=""string"">2017-10-12T10:20:17Z</DateUtc></FrequencyChange></FrequencyChanges></Clock>\n",Individual-005-1,59.96,?,1.0.0.481,1,1307112635,Professional,2.0.10.353,2.0.10.353,10/12/2017,12/10/2017 10:20,11:20:17,2.0.10.248,1,1,1,1,M1,List1,3,3,1,3,NULL,NULL,NULL,b1,BlockList1,65,3,2,65,w,NULL,NULL,NULL,NULL,NULL,NULL,NULL,NULL,NULL,TrialProc4,b1trails1,red,w,1,w,905
Individual,5,1,"<?xml version=""1.0""?>\n<Clock xmlns:dt=""urn:schemas-microsoft-com:datatypes""><Description dt:dt=""string"">E-Prime Primary Realtime Clock</Description><StartTime><Timestamp dt:dt=""int"">0</Timestamp><DateUtc dt:dt=""string"">2017-10-12T10:20:17Z</DateUtc></StartTime><FrequencyChanges><FrequencyChange><Frequency dt:dt=""r8"">2923154</Frequency><Timestamp dt:dt=""r8"">752925822398</Timestamp><Current dt:dt=""r8"">0</Current><DateUtc dt:dt=""string"">2017-10-12T10:20:17Z</DateUtc></FrequencyChange></FrequencyChanges></Clock>\n",Individual-005-1,59.96,?,1.0.0.481,1,1307112635,Professional,2.0.10.353,2.0.10.353,10/12/2017,12/10/2017 10:20,11:20:17,2.0.10.248,1,1,1,1,M1,List1,3,3,1,3,NULL,NULL,NULL,b1,BlockList1,66,52,2,66,w,NULL,NULL,NULL,NULL,NULL,NULL,NULL,NULL,NULL,TrialProc4,b1trails1,red,e,1,w,402
Individual,5,1,"<?xml version=""1.0""?>\n<Clock xmlns:dt=""urn:schemas-microsoft-com:datatypes""><Description dt:dt=""string"">E-Prime Primary Realtime Clock</Description><StartTime><Timestamp dt:dt=""int"">0</Timestamp><DateUtc dt:dt=""string"">2017-10-12T10:20:17Z</DateUtc></StartTime><FrequencyChanges><FrequencyChange><Frequency dt:dt=""r8"">2923154</Frequency><Timestamp dt:dt=""r8"">752925822398</Timestamp><Current dt:dt=""r8"">0</Current><DateUtc dt:dt=""string"">2017-10-12T10:20:17Z</DateUtc></FrequencyChange></FrequencyChanges></Clock>\n",Individual-005-1,59.96,?,1.0.0.481,1,1307112635,Professional,2.0.10.353,2.0.10.353,10/12/2017,12/10/2017 10:20,11:20:17,2.0.10.248,1,1,1,1,M1,List1,3,3,1,3,NULL,NULL,NULL,b1,BlockList1,67,88,2,67,w,NULL,NULL,NULL,NULL,NULL,NULL,NULL,NULL,NULL,TrialProc4,b1trails1,red,e,1,w,423
Individual,5,1,"<?xml version=""1.0""?>\n<Clock xmlns:dt=""urn:schemas-microsoft-com:datatypes""><Description dt:dt=""string"">E-Prime Primary Realtime Clock</Description><StartTime><Timestamp dt:dt=""int"">0</Timestamp><DateUtc dt:dt=""string"">2017-10-12T10:20:17Z</DateUtc></StartTime><FrequencyChanges><FrequencyChange><Frequency dt:dt=""r8"">2923154</Frequency><Timestamp dt:dt=""r8"">752925822398</Timestamp><Current dt:dt=""r8"">0</Current><DateUtc dt:dt=""string"">2017-10-12T10:20:17Z</DateUtc></FrequencyChange></FrequencyChanges></Clock>\n",Individual-005-1,59.96,?,1.0.0.481,1,1307112635,Professional,2.0.10.353,2.0.10.353,10/12/2017,12/10/2017 10:20,11:20:17,2.0.10.248,1,1,1,1,M1,List1,3,3,1,3,NULL,NULL,NULL,b1,BlockList1,68,54,2,68,e,NULL,NULL,NULL,NULL,NULL,NULL,NULL,NULL,NULL,TrialProc4,b1trails1,blue,w,1,e,346
Individual,5,1,"<?xml version=""1.0""?>\n<Clock xmlns:dt=""urn:schemas-microsoft-com:datatypes""><Description dt:dt=""string"">E-Prime Primary Realtime Clock</Description><StartTime><Timestamp dt:dt=""int"">0</Timestamp><DateUtc dt:dt=""string"">2017-10-12T10:20:17Z</DateUtc></StartTime><FrequencyChanges><FrequencyChange><Frequency dt:dt=""r8"">2923154</Frequency><Timestamp dt:dt=""r8"">752925822398</Timestamp><Current dt:dt=""r8"">0</Current><DateUtc dt:dt=""string"">2017-10-12T10:20:17Z</DateUtc></FrequencyChange></FrequencyChanges></Clock>\n",Individual-005-1,59.96,?,1.0.0.481,1,1307112635,Professional,2.0.10.353,2.0.10.353,10/12/2017,12/10/2017 10:20,11:20:17,2.0.10.248,1,1,1,1,M1,List1,3,3,1,3,NULL,NULL,NULL,b1,BlockList1,69,20,2,69,w,NULL,NULL,NULL,NULL,NULL,NULL,NULL,NULL,NULL,TrialProc4,b1trails1,red,e,1,w,416
Individual,5,1,"<?xml version=""1.0""?>\n<Clock xmlns:dt=""urn:schemas-microsoft-com:datatypes""><Description dt:dt=""string"">E-Prime Primary Realtime Clock</Description><StartTime><Timestamp dt:dt=""int"">0</Timestamp><DateUtc dt:dt=""string"">2017-10-12T10:20:17Z</DateUtc></StartTime><FrequencyChanges><FrequencyChange><Frequency dt:dt=""r8"">2923154</Frequency><Timestamp dt:dt=""r8"">752925822398</Timestamp><Current dt:dt=""r8"">0</Current><DateUtc dt:dt=""string"">2017-10-12T10:20:17Z</DateUtc></FrequencyChange></FrequencyChanges></Clock>\n",Individual-005-1,59.96,?,1.0.0.481,1,1307112635,Professional,2.0.10.353,2.0.10.353,10/12/2017,12/10/2017 10:20,11:20:17,2.0.10.248,1,1,1,1,M1,List1,3,3,1,3,NULL,NULL,NULL,b1,BlockList1,70,79,2,70,w,NULL,NULL,NULL,NULL,NULL,NULL,NULL,NULL,NULL,TrialProc4,b1trails1,red,w,1,w,412
Individual,5,1,"<?xml version=""1.0""?>\n<Clock xmlns:dt=""urn:schemas-microsoft-com:datatypes""><Description dt:dt=""string"">E-Prime Primary Realtime Clock</Description><StartTime><Timestamp dt:dt=""int"">0</Timestamp><DateUtc dt:dt=""string"">2017-10-12T10:20:17Z</DateUtc></StartTime><FrequencyChanges><FrequencyChange><Frequency dt:dt=""r8"">2923154</Frequency><Timestamp dt:dt=""r8"">752925822398</Timestamp><Current dt:dt=""r8"">0</Current><DateUtc dt:dt=""string"">2017-10-12T10:20:17Z</DateUtc></FrequencyChange></FrequencyChanges></Clock>\n",Individual-005-1,59.96,?,1.0.0.481,1,1307112635,Professional,2.0.10.353,2.0.10.353,10/12/2017,12/10/2017 10:20,11:20:17,2.0.10.248,1,1,1,1,M1,List1,3,3,1,3,NULL,NULL,NULL,b1,BlockList1,71,38,2,71,e,NULL,NULL,NULL,NULL,NULL,NULL,NULL,NULL,NULL,TrialProc4,b1trails1,blue,w,1,e,375
Individual,5,1,"<?xml version=""1.0""?>\n<Clock xmlns:dt=""urn:schemas-microsoft-com:datatypes""><Description dt:dt=""string"">E-Prime Primary Realtime Clock</Description><StartTime><Timestamp dt:dt=""int"">0</Timestamp><DateUtc dt:dt=""string"">2017-10-12T10:20:17Z</DateUtc></StartTime><FrequencyChanges><FrequencyChange><Frequency dt:dt=""r8"">2923154</Frequency><Timestamp dt:dt=""r8"">752925822398</Timestamp><Current dt:dt=""r8"">0</Current><DateUtc dt:dt=""string"">2017-10-12T10:20:17Z</DateUtc></FrequencyChange></FrequencyChanges></Clock>\n",Individual-005-1,59.96,?,1.0.0.481,1,1307112635,Professional,2.0.10.353,2.0.10.353,10/12/2017,12/10/2017 10:20,11:20:17,2.0.10.248,1,1,1,1,M1,List1,3,3,1,3,NULL,NULL,NULL,b1,BlockList1,72,36,2,72,w,NULL,NULL,NULL,NULL,NULL,NULL,NULL,NULL,NULL,TrialProc4,b1trails1,red,e,1,w,391
Individual,5,1,"<?xml version=""1.0""?>\n<Clock xmlns:dt=""urn:schemas-microsoft-com:datatypes""><Description dt:dt=""string"">E-Prime Primary Realtime Clock</Description><StartTime><Timestamp dt:dt=""int"">0</Timestamp><DateUtc dt:dt=""string"">2017-10-12T10:20:17Z</DateUtc></StartTime><FrequencyChanges><FrequencyChange><Frequency dt:dt=""r8"">2923154</Frequency><Timestamp dt:dt=""r8"">752925822398</Timestamp><Current dt:dt=""r8"">0</Current><DateUtc dt:dt=""string"">2017-10-12T10:20:17Z</DateUtc></FrequencyChange></FrequencyChanges></Clock>\n",Individual-005-1,59.96,?,1.0.0.481,1,1307112635,Professional,2.0.10.353,2.0.10.353,10/12/2017,12/10/2017 10:20,11:20:17,2.0.10.248,1,1,1,1,M1,List1,3,3,1,3,NULL,NULL,NULL,b1,BlockList1,73,92,2,73,w,NULL,NULL,NULL,NULL,NULL,NULL,NULL,NULL,NULL,TrialProc4,b1trails1,red,e,1,w,392
Individual,5,1,"<?xml version=""1.0""?>\n<Clock xmlns:dt=""urn:schemas-microsoft-com:datatypes""><Description dt:dt=""string"">E-Prime Primary Realtime Clock</Description><StartTime><Timestamp dt:dt=""int"">0</Timestamp><DateUtc dt:dt=""string"">2017-10-12T10:20:17Z</DateUtc></StartTime><FrequencyChanges><FrequencyChange><Frequency dt:dt=""r8"">2923154</Frequency><Timestamp dt:dt=""r8"">752925822398</Timestamp><Current dt:dt=""r8"">0</Current><DateUtc dt:dt=""string"">2017-10-12T10:20:17Z</DateUtc></FrequencyChange></FrequencyChanges></Clock>\n",Individual-005-1,59.96,?,1.0.0.481,1,1307112635,Professional,2.0.10.353,2.0.10.353,10/12/2017,12/10/2017 10:20,11:20:17,2.0.10.248,1,1,1,1,M1,List1,3,3,1,3,NULL,NULL,NULL,b1,BlockList1,74,28,2,74,w,NULL,NULL,NULL,NULL,NULL,NULL,NULL,NULL,NULL,TrialProc4,b1trails1,red,e,1,w,602
Individual,5,1,"<?xml version=""1.0""?>\n<Clock xmlns:dt=""urn:schemas-microsoft-com:datatypes""><Description dt:dt=""string"">E-Prime Primary Realtime Clock</Description><StartTime><Timestamp dt:dt=""int"">0</Timestamp><DateUtc dt:dt=""string"">2017-10-12T10:20:17Z</DateUtc></StartTime><FrequencyChanges><FrequencyChange><Frequency dt:dt=""r8"">2923154</Frequency><Timestamp dt:dt=""r8"">752925822398</Timestamp><Current dt:dt=""r8"">0</Current><DateUtc dt:dt=""string"">2017-10-12T10:20:17Z</DateUtc></FrequencyChange></FrequencyChanges></Clock>\n",Individual-005-1,59.96,?,1.0.0.481,1,1307112635,Professional,2.0.10.353,2.0.10.353,10/12/2017,12/10/2017 10:20,11:20:17,2.0.10.248,1,1,1,1,M1,List1,3,3,1,3,NULL,NULL,NULL,b1,BlockList1,75,17,2,75,e,NULL,NULL,NULL,NULL,NULL,NULL,NULL,NULL,NULL,TrialProc4,b1trails1,blue,e,1,e,337
Individual,5,1,"<?xml version=""1.0""?>\n<Clock xmlns:dt=""urn:schemas-microsoft-com:datatypes""><Description dt:dt=""string"">E-Prime Primary Realtime Clock</Description><StartTime><Timestamp dt:dt=""int"">0</Timestamp><DateUtc dt:dt=""string"">2017-10-12T10:20:17Z</DateUtc></StartTime><FrequencyChanges><FrequencyChange><Frequency dt:dt=""r8"">2923154</Frequency><Timestamp dt:dt=""r8"">752925822398</Timestamp><Current dt:dt=""r8"">0</Current><DateUtc dt:dt=""string"">2017-10-12T10:20:17Z</DateUtc></FrequencyChange></FrequencyChanges></Clock>\n",Individual-005-1,59.96,?,1.0.0.481,1,1307112635,Professional,2.0.10.353,2.0.10.353,10/12/2017,12/10/2017 10:20,11:20:17,2.0.10.248,1,1,1,1,M1,List1,3,3,1,3,NULL,NULL,NULL,b1,BlockList1,76,41,2,76,e,NULL,NULL,NULL,NULL,NULL,NULL,NULL,NULL,NULL,TrialProc4,b1trails1,blue,e,1,e,304
Individual,5,1,"<?xml version=""1.0""?>\n<Clock xmlns:dt=""urn:schemas-microsoft-com:datatypes""><Description dt:dt=""string"">E-Prime Primary Realtime Clock</Description><StartTime><Timestamp dt:dt=""int"">0</Timestamp><DateUtc dt:dt=""string"">2017-10-12T10:20:17Z</DateUtc></StartTime><FrequencyChanges><FrequencyChange><Frequency dt:dt=""r8"">2923154</Frequency><Timestamp dt:dt=""r8"">752925822398</Timestamp><Current dt:dt=""r8"">0</Current><DateUtc dt:dt=""string"">2017-10-12T10:20:17Z</DateUtc></FrequencyChange></FrequencyChanges></Clock>\n",Individual-005-1,59.96,?,1.0.0.481,1,1307112635,Professional,2.0.10.353,2.0.10.353,10/12/2017,12/10/2017 10:20,11:20:17,2.0.10.248,1,1,1,1,M1,List1,3,3,1,3,NULL,NULL,NULL,b1,BlockList1,77,27,2,77,w,NULL,NULL,NULL,NULL,NULL,NULL,NULL,NULL,NULL,TrialProc4,b1trails1,red,w,1,w,345
Individual,5,1,"<?xml version=""1.0""?>\n<Clock xmlns:dt=""urn:schemas-microsoft-com:datatypes""><Description dt:dt=""string"">E-Prime Primary Realtime Clock</Description><StartTime><Timestamp dt:dt=""int"">0</Timestamp><DateUtc dt:dt=""string"">2017-10-12T10:20:17Z</DateUtc></StartTime><FrequencyChanges><FrequencyChange><Frequency dt:dt=""r8"">2923154</Frequency><Timestamp dt:dt=""r8"">752925822398</Timestamp><Current dt:dt=""r8"">0</Current><DateUtc dt:dt=""string"">2017-10-12T10:20:17Z</DateUtc></FrequencyChange></FrequencyChanges></Clock>\n",Individual-005-1,59.96,?,1.0.0.481,1,1307112635,Professional,2.0.10.353,2.0.10.353,10/12/2017,12/10/2017 10:20,11:20:17,2.0.10.248,1,1,1,1,M1,List1,3,3,1,3,NULL,NULL,NULL,b1,BlockList1,78,69,2,78,e,NULL,NULL,NULL,NULL,NULL,NULL,NULL,NULL,NULL,TrialProc4,b1trails1,blue,e,1,e,439
Individual,5,1,"<?xml version=""1.0""?>\n<Clock xmlns:dt=""urn:schemas-microsoft-com:datatypes""><Description dt:dt=""string"">E-Prime Primary Realtime Clock</Description><StartTime><Timestamp dt:dt=""int"">0</Timestamp><DateUtc dt:dt=""string"">2017-10-12T10:20:17Z</DateUtc></StartTime><FrequencyChanges><FrequencyChange><Frequency dt:dt=""r8"">2923154</Frequency><Timestamp dt:dt=""r8"">752925822398</Timestamp><Current dt:dt=""r8"">0</Current><DateUtc dt:dt=""string"">2017-10-12T10:20:17Z</DateUtc></FrequencyChange></FrequencyChanges></Clock>\n",Individual-005-1,59.96,?,1.0.0.481,1,1307112635,Professional,2.0.10.353,2.0.10.353,10/12/2017,12/10/2017 10:20,11:20:17,2.0.10.248,1,1,1,1,M1,List1,3,3,1,3,NULL,NULL,NULL,b1,BlockList1,79,43,2,79,w,NULL,NULL,NULL,NULL,NULL,NULL,NULL,NULL,NULL,TrialProc4,b1trails1,red,w,1,w,570
Individual,5,1,"<?xml version=""1.0""?>\n<Clock xmlns:dt=""urn:schemas-microsoft-com:datatypes""><Description dt:dt=""string"">E-Prime Primary Realtime Clock</Description><StartTime><Timestamp dt:dt=""int"">0</Timestamp><DateUtc dt:dt=""string"">2017-10-12T10:20:17Z</DateUtc></StartTime><FrequencyChanges><FrequencyChange><Frequency dt:dt=""r8"">2923154</Frequency><Timestamp dt:dt=""r8"">752925822398</Timestamp><Current dt:dt=""r8"">0</Current><DateUtc dt:dt=""string"">2017-10-12T10:20:17Z</DateUtc></FrequencyChange></FrequencyChanges></Clock>\n",Individual-005-1,59.96,?,1.0.0.481,1,1307112635,Professional,2.0.10.353,2.0.10.353,10/12/2017,12/10/2017 10:20,11:20:17,2.0.10.248,1,1,1,1,M1,List1,3,3,1,3,NULL,NULL,NULL,b1,BlockList1,80,39,2,80,w,NULL,NULL,NULL,NULL,NULL,NULL,NULL,NULL,NULL,TrialProc4,b1trails1,red,w,1,w,446
Individual,5,1,"<?xml version=""1.0""?>\n<Clock xmlns:dt=""urn:schemas-microsoft-com:datatypes""><Description dt:dt=""string"">E-Prime Primary Realtime Clock</Description><StartTime><Timestamp dt:dt=""int"">0</Timestamp><DateUtc dt:dt=""string"">2017-10-12T10:20:17Z</DateUtc></StartTime><FrequencyChanges><FrequencyChange><Frequency dt:dt=""r8"">2923154</Frequency><Timestamp dt:dt=""r8"">752925822398</Timestamp><Current dt:dt=""r8"">0</Current><DateUtc dt:dt=""string"">2017-10-12T10:20:17Z</DateUtc></FrequencyChange></FrequencyChanges></Clock>\n",Individual-005-1,59.96,?,1.0.0.481,1,1307112635,Professional,2.0.10.353,2.0.10.353,10/12/2017,12/10/2017 10:20,11:20:17,2.0.10.248,1,1,1,1,M1,List1,3,3,1,3,NULL,NULL,NULL,b1,BlockList1,81,1,2,81,e,NULL,NULL,NULL,NULL,NULL,NULL,NULL,NULL,NULL,TrialProc4,b1trails1,blue,e,1,e,352
Individual,5,1,"<?xml version=""1.0""?>\n<Clock xmlns:dt=""urn:schemas-microsoft-com:datatypes""><Description dt:dt=""string"">E-Prime Primary Realtime Clock</Description><StartTime><Timestamp dt:dt=""int"">0</Timestamp><DateUtc dt:dt=""string"">2017-10-12T10:20:17Z</DateUtc></StartTime><FrequencyChanges><FrequencyChange><Frequency dt:dt=""r8"">2923154</Frequency><Timestamp dt:dt=""r8"">752925822398</Timestamp><Current dt:dt=""r8"">0</Current><DateUtc dt:dt=""string"">2017-10-12T10:20:17Z</DateUtc></FrequencyChange></FrequencyChanges></Clock>\n",Individual-005-1,59.96,?,1.0.0.481,1,1307112635,Professional,2.0.10.353,2.0.10.353,10/12/2017,12/10/2017 10:20,11:20:17,2.0.10.248,1,1,1,1,M1,List1,3,3,1,3,NULL,NULL,NULL,b1,BlockList1,82,10,2,82,e,NULL,NULL,NULL,NULL,NULL,NULL,NULL,NULL,NULL,TrialProc4,b1trails1,blue,w,1,e,418
Individual,5,1,"<?xml version=""1.0""?>\n<Clock xmlns:dt=""urn:schemas-microsoft-com:datatypes""><Description dt:dt=""string"">E-Prime Primary Realtime Clock</Description><StartTime><Timestamp dt:dt=""int"">0</Timestamp><DateUtc dt:dt=""string"">2017-10-12T10:20:17Z</DateUtc></StartTime><FrequencyChanges><FrequencyChange><Frequency dt:dt=""r8"">2923154</Frequency><Timestamp dt:dt=""r8"">752925822398</Timestamp><Current dt:dt=""r8"">0</Current><DateUtc dt:dt=""string"">2017-10-12T10:20:17Z</DateUtc></FrequencyChange></FrequencyChanges></Clock>\n",Individual-005-1,59.96,?,1.0.0.481,1,1307112635,Professional,2.0.10.353,2.0.10.353,10/12/2017,12/10/2017 10:20,11:20:17,2.0.10.248,1,1,1,1,M1,List1,3,3,1,3,NULL,NULL,NULL,b1,BlockList1,83,14,2,83,e,NULL,NULL,NULL,NULL,NULL,NULL,NULL,NULL,NULL,TrialProc4,b1trails1,blue,w,1,e,368
Individual,5,1,"<?xml version=""1.0""?>\n<Clock xmlns:dt=""urn:schemas-microsoft-com:datatypes""><Description dt:dt=""string"">E-Prime Primary Realtime Clock</Description><StartTime><Timestamp dt:dt=""int"">0</Timestamp><DateUtc dt:dt=""string"">2017-10-12T10:20:17Z</DateUtc></StartTime><FrequencyChanges><FrequencyChange><Frequency dt:dt=""r8"">2923154</Frequency><Timestamp dt:dt=""r8"">752925822398</Timestamp><Current dt:dt=""r8"">0</Current><DateUtc dt:dt=""string"">2017-10-12T10:20:17Z</DateUtc></FrequencyChange></FrequencyChanges></Clock>\n",Individual-005-1,59.96,?,1.0.0.481,1,1307112635,Professional,2.0.10.353,2.0.10.353,10/12/2017,12/10/2017 10:20,11:20:17,2.0.10.248,1,1,1,1,M1,List1,3,3,1,3,NULL,NULL,NULL,b1,BlockList1,84,55,2,84,w,NULL,NULL,NULL,NULL,NULL,NULL,NULL,NULL,NULL,TrialProc4,b1trails1,red,w,1,w,529
Individual,5,1,"<?xml version=""1.0""?>\n<Clock xmlns:dt=""urn:schemas-microsoft-com:datatypes""><Description dt:dt=""string"">E-Prime Primary Realtime Clock</Description><StartTime><Timestamp dt:dt=""int"">0</Timestamp><DateUtc dt:dt=""string"">2017-10-12T10:20:17Z</DateUtc></StartTime><FrequencyChanges><FrequencyChange><Frequency dt:dt=""r8"">2923154</Frequency><Timestamp dt:dt=""r8"">752925822398</Timestamp><Current dt:dt=""r8"">0</Current><DateUtc dt:dt=""string"">2017-10-12T10:20:17Z</DateUtc></FrequencyChange></FrequencyChanges></Clock>\n",Individual-005-1,59.96,?,1.0.0.481,1,1307112635,Professional,2.0.10.353,2.0.10.353,10/12/2017,12/10/2017 10:20,11:20:17,2.0.10.248,1,1,1,1,M1,List1,3,3,1,3,NULL,NULL,NULL,b1,BlockList1,85,57,2,85,e,NULL,NULL,NULL,NULL,NULL,NULL,NULL,NULL,NULL,TrialProc4,b1trails1,blue,e,1,e,317
Individual,5,1,"<?xml version=""1.0""?>\n<Clock xmlns:dt=""urn:schemas-microsoft-com:datatypes""><Description dt:dt=""string"">E-Prime Primary Realtime Clock</Description><StartTime><Timestamp dt:dt=""int"">0</Timestamp><DateUtc dt:dt=""string"">2017-10-12T10:20:17Z</DateUtc></StartTime><FrequencyChanges><FrequencyChange><Frequency dt:dt=""r8"">2923154</Frequency><Timestamp dt:dt=""r8"">752925822398</Timestamp><Current dt:dt=""r8"">0</Current><DateUtc dt:dt=""string"">2017-10-12T10:20:17Z</DateUtc></FrequencyChange></FrequencyChanges></Clock>\n",Individual-005-1,59.96,?,1.0.0.481,1,1307112635,Professional,2.0.10.353,2.0.10.353,10/12/2017,12/10/2017 10:20,11:20:17,2.0.10.248,1,1,1,1,M1,List1,3,3,1,3,NULL,NULL,NULL,b1,BlockList1,86,18,2,86,e,NULL,NULL,NULL,NULL,NULL,NULL,NULL,NULL,NULL,TrialProc4,b1trails1,blue,w,1,e,394
Individual,5,1,"<?xml version=""1.0""?>\n<Clock xmlns:dt=""urn:schemas-microsoft-com:datatypes""><Description dt:dt=""string"">E-Prime Primary Realtime Clock</Description><StartTime><Timestamp dt:dt=""int"">0</Timestamp><DateUtc dt:dt=""string"">2017-10-12T10:20:17Z</DateUtc></StartTime><FrequencyChanges><FrequencyChange><Frequency dt:dt=""r8"">2923154</Frequency><Timestamp dt:dt=""r8"">752925822398</Timestamp><Current dt:dt=""r8"">0</Current><DateUtc dt:dt=""string"">2017-10-12T10:20:17Z</DateUtc></FrequencyChange></FrequencyChanges></Clock>\n",Individual-005-1,59.96,?,1.0.0.481,1,1307112635,Professional,2.0.10.353,2.0.10.353,10/12/2017,12/10/2017 10:20,11:20:17,2.0.10.248,1,1,1,1,M1,List1,3,3,1,3,NULL,NULL,NULL,b1,BlockList1,87,81,2,87,e,NULL,NULL,NULL,NULL,NULL,NULL,NULL,NULL,NULL,TrialProc4,b1trails1,blue,e,1,e,698
Individual,5,1,"<?xml version=""1.0""?>\n<Clock xmlns:dt=""urn:schemas-microsoft-com:datatypes""><Description dt:dt=""string"">E-Prime Primary Realtime Clock</Description><StartTime><Timestamp dt:dt=""int"">0</Timestamp><DateUtc dt:dt=""string"">2017-10-12T10:20:17Z</DateUtc></StartTime><FrequencyChanges><FrequencyChange><Frequency dt:dt=""r8"">2923154</Frequency><Timestamp dt:dt=""r8"">752925822398</Timestamp><Current dt:dt=""r8"">0</Current><DateUtc dt:dt=""string"">2017-10-12T10:20:17Z</DateUtc></FrequencyChange></FrequencyChanges></Clock>\n",Individual-005-1,59.96,?,1.0.0.481,1,1307112635,Professional,2.0.10.353,2.0.10.353,10/12/2017,12/10/2017 10:20,11:20:17,2.0.10.248,1,1,1,1,M1,List1,3,3,1,3,NULL,NULL,NULL,b1,BlockList1,88,30,2,88,e,NULL,NULL,NULL,NULL,NULL,NULL,NULL,NULL,NULL,TrialProc4,b1trails1,blue,w,1,e,544
Individual,5,1,"<?xml version=""1.0""?>\n<Clock xmlns:dt=""urn:schemas-microsoft-com:datatypes""><Description dt:dt=""string"">E-Prime Primary Realtime Clock</Description><StartTime><Timestamp dt:dt=""int"">0</Timestamp><DateUtc dt:dt=""string"">2017-10-12T10:20:17Z</DateUtc></StartTime><FrequencyChanges><FrequencyChange><Frequency dt:dt=""r8"">2923154</Frequency><Timestamp dt:dt=""r8"">752925822398</Timestamp><Current dt:dt=""r8"">0</Current><DateUtc dt:dt=""string"">2017-10-12T10:20:17Z</DateUtc></FrequencyChange></FrequencyChanges></Clock>\n",Individual-005-1,59.96,?,1.0.0.481,1,1307112635,Professional,2.0.10.353,2.0.10.353,10/12/2017,12/10/2017 10:20,11:20:17,2.0.10.248,1,1,1,1,M1,List1,3,3,1,3,NULL,NULL,NULL,b1,BlockList1,89,4,2,89,w,NULL,NULL,NULL,NULL,NULL,NULL,NULL,NULL,NULL,TrialProc4,b1trails1,red,e,1,w,384
Individual,5,1,"<?xml version=""1.0""?>\n<Clock xmlns:dt=""urn:schemas-microsoft-com:datatypes""><Description dt:dt=""string"">E-Prime Primary Realtime Clock</Description><StartTime><Timestamp dt:dt=""int"">0</Timestamp><DateUtc dt:dt=""string"">2017-10-12T10:20:17Z</DateUtc></StartTime><FrequencyChanges><FrequencyChange><Frequency dt:dt=""r8"">2923154</Frequency><Timestamp dt:dt=""r8"">752925822398</Timestamp><Current dt:dt=""r8"">0</Current><DateUtc dt:dt=""string"">2017-10-12T10:20:17Z</DateUtc></FrequencyChange></FrequencyChanges></Clock>\n",Individual-005-1,59.96,?,1.0.0.481,1,1307112635,Professional,2.0.10.353,2.0.10.353,10/12/2017,12/10/2017 10:20,11:20:17,2.0.10.248,1,1,1,1,M1,List1,3,3,1,3,NULL,NULL,NULL,b1,BlockList1,90,12,2,90,w,NULL,NULL,NULL,NULL,NULL,NULL,NULL,NULL,NULL,TrialProc4,b1trails1,red,e,1,w,362
Individual,5,1,"<?xml version=""1.0""?>\n<Clock xmlns:dt=""urn:schemas-microsoft-com:datatypes""><Description dt:dt=""string"">E-Prime Primary Realtime Clock</Description><StartTime><Timestamp dt:dt=""int"">0</Timestamp><DateUtc dt:dt=""string"">2017-10-12T10:20:17Z</DateUtc></StartTime><FrequencyChanges><FrequencyChange><Frequency dt:dt=""r8"">2923154</Frequency><Timestamp dt:dt=""r8"">752925822398</Timestamp><Current dt:dt=""r8"">0</Current><DateUtc dt:dt=""string"">2017-10-12T10:20:17Z</DateUtc></FrequencyChange></FrequencyChanges></Clock>\n",Individual-005-1,59.96,?,1.0.0.481,1,1307112635,Professional,2.0.10.353,2.0.10.353,10/12/2017,12/10/2017 10:20,11:20:17,2.0.10.248,1,1,1,1,M1,List1,3,3,1,3,NULL,NULL,NULL,b1,BlockList1,91,49,2,91,e,NULL,NULL,NULL,NULL,NULL,NULL,NULL,NULL,NULL,TrialProc4,b1trails1,blue,e,1,e,654
Individual,5,1,"<?xml version=""1.0""?>\n<Clock xmlns:dt=""urn:schemas-microsoft-com:datatypes""><Description dt:dt=""string"">E-Prime Primary Realtime Clock</Description><StartTime><Timestamp dt:dt=""int"">0</Timestamp><DateUtc dt:dt=""string"">2017-10-12T10:20:17Z</DateUtc></StartTime><FrequencyChanges><FrequencyChange><Frequency dt:dt=""r8"">2923154</Frequency><Timestamp dt:dt=""r8"">752925822398</Timestamp><Current dt:dt=""r8"">0</Current><DateUtc dt:dt=""string"">2017-10-12T10:20:17Z</DateUtc></FrequencyChange></FrequencyChanges></Clock>\n",Individual-005-1,59.96,?,1.0.0.481,1,1307112635,Professional,2.0.10.353,2.0.10.353,10/12/2017,12/10/2017 10:20,11:20:17,2.0.10.248,1,1,1,1,M1,List1,3,3,1,3,NULL,NULL,NULL,b1,BlockList1,92,82,2,92,e,NULL,NULL,NULL,NULL,NULL,NULL,NULL,NULL,NULL,TrialProc4,b1trails1,blue,w,1,e,404
Individual,5,1,"<?xml version=""1.0""?>\n<Clock xmlns:dt=""urn:schemas-microsoft-com:datatypes""><Description dt:dt=""string"">E-Prime Primary Realtime Clock</Description><StartTime><Timestamp dt:dt=""int"">0</Timestamp><DateUtc dt:dt=""string"">2017-10-12T10:20:17Z</DateUtc></StartTime><FrequencyChanges><FrequencyChange><Frequency dt:dt=""r8"">2923154</Frequency><Timestamp dt:dt=""r8"">752925822398</Timestamp><Current dt:dt=""r8"">0</Current><DateUtc dt:dt=""string"">2017-10-12T10:20:17Z</DateUtc></FrequencyChange></FrequencyChanges></Clock>\n",Individual-005-1,59.96,?,1.0.0.481,1,1307112635,Professional,2.0.10.353,2.0.10.353,10/12/2017,12/10/2017 10:20,11:20:17,2.0.10.248,1,1,1,1,M1,List1,3,3,1,3,NULL,NULL,NULL,b1,BlockList1,93,5,2,93,e,NULL,NULL,NULL,NULL,NULL,NULL,NULL,NULL,NULL,TrialProc4,b1trails1,blue,e,1,e,516
Individual,5,1,"<?xml version=""1.0""?>\n<Clock xmlns:dt=""urn:schemas-microsoft-com:datatypes""><Description dt:dt=""string"">E-Prime Primary Realtime Clock</Description><StartTime><Timestamp dt:dt=""int"">0</Timestamp><DateUtc dt:dt=""string"">2017-10-12T10:20:17Z</DateUtc></StartTime><FrequencyChanges><FrequencyChange><Frequency dt:dt=""r8"">2923154</Frequency><Timestamp dt:dt=""r8"">752925822398</Timestamp><Current dt:dt=""r8"">0</Current><DateUtc dt:dt=""string"">2017-10-12T10:20:17Z</DateUtc></FrequencyChange></FrequencyChanges></Clock>\n",Individual-005-1,59.96,?,1.0.0.481,1,1307112635,Professional,2.0.10.353,2.0.10.353,10/12/2017,12/10/2017 10:20,11:20:17,2.0.10.248,1,1,1,1,M1,List1,3,3,1,3,NULL,NULL,NULL,b1,BlockList1,94,9,2,94,e,NULL,NULL,NULL,NULL,NULL,NULL,NULL,NULL,NULL,TrialProc4,b1trails1,blue,e,1,e,346
Individual,5,1,"<?xml version=""1.0""?>\n<Clock xmlns:dt=""urn:schemas-microsoft-com:datatypes""><Description dt:dt=""string"">E-Prime Primary Realtime Clock</Description><StartTime><Timestamp dt:dt=""int"">0</Timestamp><DateUtc dt:dt=""string"">2017-10-12T10:20:17Z</DateUtc></StartTime><FrequencyChanges><FrequencyChange><Frequency dt:dt=""r8"">2923154</Frequency><Timestamp dt:dt=""r8"">752925822398</Timestamp><Current dt:dt=""r8"">0</Current><DateUtc dt:dt=""string"">2017-10-12T10:20:17Z</DateUtc></FrequencyChange></FrequencyChanges></Clock>\n",Individual-005-1,59.96,?,1.0.0.481,1,1307112635,Professional,2.0.10.353,2.0.10.353,10/12/2017,12/10/2017 10:20,11:20:17,2.0.10.248,1,1,1,1,M1,List1,3,3,1,3,NULL,NULL,NULL,b1,BlockList1,95,63,2,95,w,NULL,NULL,NULL,NULL,NULL,NULL,NULL,NULL,NULL,TrialProc4,b1trails1,red,w,1,w,526
Individual,5,1,"<?xml version=""1.0""?>\n<Clock xmlns:dt=""urn:schemas-microsoft-com:datatypes""><Description dt:dt=""string"">E-Prime Primary Realtime Clock</Description><StartTime><Timestamp dt:dt=""int"">0</Timestamp><DateUtc dt:dt=""string"">2017-10-12T10:20:17Z</DateUtc></StartTime><FrequencyChanges><FrequencyChange><Frequency dt:dt=""r8"">2923154</Frequency><Timestamp dt:dt=""r8"">752925822398</Timestamp><Current dt:dt=""r8"">0</Current><DateUtc dt:dt=""string"">2017-10-12T10:20:17Z</DateUtc></FrequencyChange></FrequencyChanges></Clock>\n",Individual-005-1,59.96,?,1.0.0.481,1,1307112635,Professional,2.0.10.353,2.0.10.353,10/12/2017,12/10/2017 10:20,11:20:17,2.0.10.248,1,1,1,1,M1,List1,3,3,1,3,NULL,NULL,NULL,b1,BlockList1,96,29,2,96,e,NULL,NULL,NULL,NULL,NULL,NULL,NULL,NULL,NULL,TrialProc4,b1trails1,blue,e,1,e,675
Individual,5,1,"<?xml version=""1.0""?>\n<Clock xmlns:dt=""urn:schemas-microsoft-com:datatypes""><Description dt:dt=""string"">E-Prime Primary Realtime Clock</Description><StartTime><Timestamp dt:dt=""int"">0</Timestamp><DateUtc dt:dt=""string"">2017-10-12T10:20:17Z</DateUtc></StartTime><FrequencyChanges><FrequencyChange><Frequency dt:dt=""r8"">2923154</Frequency><Timestamp dt:dt=""r8"">752925822398</Timestamp><Current dt:dt=""r8"">0</Current><DateUtc dt:dt=""string"">2017-10-12T10:20:17Z</DateUtc></FrequencyChange></FrequencyChanges></Clock>\n",Individual-005-1,59.96,?,1.0.0.481,1,1307112635,Professional,2.0.10.353,2.0.10.353,10/12/2017,12/10/2017 10:20,11:20:17,2.0.10.248,2,2,1,2,M2,List1,1,NULL,NULL,NULL,1,1,1,PracTrial2,BlockList2,1,NULL,NULL,NULL,e,NULL,NULL,NULL,NULL,NULL,NULL,4,2,1,TrialProc,PracTrials2,red,e,0,w,522
Individual,5,1,"<?xml version=""1.0""?>\n<Clock xmlns:dt=""urn:schemas-microsoft-com:datatypes""><Description dt:dt=""string"">E-Prime Primary Realtime Clock</Description><StartTime><Timestamp dt:dt=""int"">0</Timestamp><DateUtc dt:dt=""string"">2017-10-12T10:20:17Z</DateUtc></StartTime><FrequencyChanges><FrequencyChange><Frequency dt:dt=""r8"">2923154</Frequency><Timestamp dt:dt=""r8"">752925822398</Timestamp><Current dt:dt=""r8"">0</Current><DateUtc dt:dt=""string"">2017-10-12T10:20:17Z</DateUtc></FrequencyChange></FrequencyChanges></Clock>\n",Individual-005-1,59.96,?,1.0.0.481,1,1307112635,Professional,2.0.10.353,2.0.10.353,10/12/2017,12/10/2017 10:20,11:20:17,2.0.10.248,2,2,1,2,M2,List1,1,NULL,NULL,NULL,1,1,1,PracTrial2,BlockList2,2,NULL,NULL,NULL,w,NULL,NULL,NULL,NULL,NULL,NULL,6,2,2,TrialProc,PracTrials2,blue,w,1,w,1304
Individual,5,1,"<?xml version=""1.0""?>\n<Clock xmlns:dt=""urn:schemas-microsoft-com:datatypes""><Description dt:dt=""string"">E-Prime Primary Realtime Clock</Description><StartTime><Timestamp dt:dt=""int"">0</Timestamp><DateUtc dt:dt=""string"">2017-10-12T10:20:17Z</DateUtc></StartTime><FrequencyChanges><FrequencyChange><Frequency dt:dt=""r8"">2923154</Frequency><Timestamp dt:dt=""r8"">752925822398</Timestamp><Current dt:dt=""r8"">0</Current><DateUtc dt:dt=""string"">2017-10-12T10:20:17Z</DateUtc></FrequencyChange></FrequencyChanges></Clock>\n",Individual-005-1,59.96,?,1.0.0.481,1,1307112635,Professional,2.0.10.353,2.0.10.353,10/12/2017,12/10/2017 10:20,11:20:17,2.0.10.248,2,2,1,2,M2,List1,1,NULL,NULL,NULL,1,1,1,PracTrial2,BlockList2,3,NULL,NULL,NULL,w,NULL,NULL,NULL,NULL,NULL,NULL,9,2,3,TrialProc,PracTrials2,blue,e,1,w,940
Individual,5,1,"<?xml version=""1.0""?>\n<Clock xmlns:dt=""urn:schemas-microsoft-com:datatypes""><Description dt:dt=""string"">E-Prime Primary Realtime Clock</Description><StartTime><Timestamp dt:dt=""int"">0</Timestamp><DateUtc dt:dt=""string"">2017-10-12T10:20:17Z</DateUtc></StartTime><FrequencyChanges><FrequencyChange><Frequency dt:dt=""r8"">2923154</Frequency><Timestamp dt:dt=""r8"">752925822398</Timestamp><Current dt:dt=""r8"">0</Current><DateUtc dt:dt=""string"">2017-10-12T10:20:17Z</DateUtc></FrequencyChange></FrequencyChanges></Clock>\n",Individual-005-1,59.96,?,1.0.0.481,1,1307112635,Professional,2.0.10.353,2.0.10.353,10/12/2017,12/10/2017 10:20,11:20:17,2.0.10.248,2,2,1,2,M2,List1,1,NULL,NULL,NULL,1,1,1,PracTrial2,BlockList2,4,NULL,NULL,NULL,e,NULL,NULL,NULL,NULL,NULL,NULL,3,2,4,TrialProc,PracTrials2,red,w,1,e,451
Individual,5,1,"<?xml version=""1.0""?>\n<Clock xmlns:dt=""urn:schemas-microsoft-com:datatypes""><Description dt:dt=""string"">E-Prime Primary Realtime Clock</Description><StartTime><Timestamp dt:dt=""int"">0</Timestamp><DateUtc dt:dt=""string"">2017-10-12T10:20:17Z</DateUtc></StartTime><FrequencyChanges><FrequencyChange><Frequency dt:dt=""r8"">2923154</Frequency><Timestamp dt:dt=""r8"">752925822398</Timestamp><Current dt:dt=""r8"">0</Current><DateUtc dt:dt=""string"">2017-10-12T10:20:17Z</DateUtc></FrequencyChange></FrequencyChanges></Clock>\n",Individual-005-1,59.96,?,1.0.0.481,1,1307112635,Professional,2.0.10.353,2.0.10.353,10/12/2017,12/10/2017 10:20,11:20:17,2.0.10.248,2,2,1,2,M2,List1,1,NULL,NULL,NULL,1,1,1,PracTrial2,BlockList2,5,NULL,NULL,NULL,e,NULL,NULL,NULL,NULL,NULL,NULL,7,2,5,TrialProc,PracTrials2,red,w,1,e,330
Individual,5,1,"<?xml version=""1.0""?>\n<Clock xmlns:dt=""urn:schemas-microsoft-com:datatypes""><Description dt:dt=""string"">E-Prime Primary Realtime Clock</Description><StartTime><Timestamp dt:dt=""int"">0</Timestamp><DateUtc dt:dt=""string"">2017-10-12T10:20:17Z</DateUtc></StartTime><FrequencyChanges><FrequencyChange><Frequency dt:dt=""r8"">2923154</Frequency><Timestamp dt:dt=""r8"">752925822398</Timestamp><Current dt:dt=""r8"">0</Current><DateUtc dt:dt=""string"">2017-10-12T10:20:17Z</DateUtc></FrequencyChange></FrequencyChanges></Clock>\n",Individual-005-1,59.96,?,1.0.0.481,1,1307112635,Professional,2.0.10.353,2.0.10.353,10/12/2017,12/10/2017 10:20,11:20:17,2.0.10.248,2,2,1,2,M2,List1,1,NULL,NULL,NULL,1,1,1,PracTrial2,BlockList2,6,NULL,NULL,NULL,w,NULL,NULL,NULL,NULL,NULL,NULL,1,2,6,TrialProc,PracTrials2,blue,e,1,w,510
