ExperimentName,Subject,Session,Clock.Information,DataFile.Basename,Display1.RefreshRate,Display2.RefreshRate,ExperimentVersion,Group,RandomSeed,RuntimeCapabilities,RuntimeVersion,RuntimeVersionExpected,SessionDate,SessionStartDateTimeUtc,SessionTime,StudioVersion,Block,List1,List1.Cycle,List1.Sample,Procedure[Block],Running[Block],Trial,BlockList1,BlockList1.Cycle,BlockList1.Sample,BlockList2,BlockList2.Cycle,BlockList2.Sample,Procedure[Trial],Running[Trial],SubTrial,b1trails1,b1trails1.Cycle,b1trails1.Sample,CorrectSubj1,List2,List2.Cycle,List2.Sample,PracTrials1,PracTrials1.Cycle,PracTrials1.Sample,PracTrials2,PracTrials2.Cycle,PracTrials2.Sample,Procedure[SubTrial],Running[SubTrial],Screen1_Obj_Colour,Screen_1_Obj_Pos,Subject1ACC,Subject1RESP,Subject1RT
Individual,6,1,"<?xml version=""1.0""?>\n<Clock xmlns:dt=""urn:schemas-microsoft-com:datatypes""><Description dt:dt=""string"">E-Prime Primary Realtime Clock</Description><StartTime><Timestamp dt:dt=""int"">0</Timestamp><DateUtc dt:dt=""string"">2017-10-12T10:59:10Z</DateUtc></StartTime><FrequencyChanges><FrequencyChange><Frequency dt:dt=""r8"">2923154</Frequency><Timestamp dt:dt=""r8"">759744201314</Timestamp><Current dt:dt=""r8"">0</Current><DateUtc dt:dt=""string"">2017-10-12T10:59:10Z</DateUtc></FrequencyChange></FrequencyChanges></Clock>\n",Individual-006-1,59.955,?,1.0.0.483,1,-464453488,Professional,2.0.10.353,2.0.10.353,10/12/2017,12/10/2017 10:59,11:59:10,2.0.10.248,1,1,1,1,M1,List1,1,1,1,1,NULL,NULL,NULL,Prac1,BlockList1,1,NULL,NULL,NULL,w,NULL,NULL,NULL,7,2,1,NULL,NULL,NULL,TrialProc47,PracTrials1,red,w,1,w,1420
Individual,6,1,"<?xml version=""1.0""?>\n<Clock xmlns:dt=""urn:schemas-microsoft-com:datatypes""><Description dt:dt=""string"">E-Prime Primary Realtime Clock</Description><StartTime><Timestamp dt:dt=""int"">0</Timestamp><DateUtc dt:dt=""string"">2017-10-12T10:59:10Z</DateUtc></StartTime><FrequencyChanges><FrequencyChange><Frequency dt:dt=""r8"">2923154</Frequency><Timestamp dt:dt=""r8"">759744201314</Timestamp><Current dt:dt=""r8"">0</Current><DateUtc dt:dt=""string"">2017-10-12T10:59:10Z</DateUtc></FrequencyChange></FrequencyChanges></Clock>\n",Individual-006-1,59.955,?,1.0.0.483,1,-464453488,Professional,2.0.10.353,2.0.10.353,10/12/2017,12/10/2017 10:59,11:59:10,2.0.10.248,1,1,1,1,M1,List1,1,1,1,1,NULL,NULL,NULL,Prac1,BlockList1,2,NULL,NULL,NULL,w,NULL,NULL,NULL,8,2,2,NULL,NULL,NULL,TrialProc47,PracTrials1,red,e,1,w,640
Individual,6,1,"<?xml version=""1.0""?>\n<Clock xmlns:dt=""urn:schemas-microsoft-com:datatypes""><Description dt:dt=""string"">E-Prime Primary Realtime Clock</Description><StartTime><Timestamp dt:dt=""int"">0</Timestamp><DateUtc dt:dt=""string"">2017-10-12T10:59:10Z</DateUtc></StartTime><FrequencyChanges><FrequencyChange><Frequency dt:dt=""r8"">2923154</Frequency><Timestamp dt:dt=""r8"">759744201314</Timestamp><Current dt:dt=""r8"">0</Current><DateUtc dt:dt=""string"">2017-10-12T10:59:10Z</DateUtc></FrequencyChange></FrequencyChanges></Clock>\n",Individual-006-1,59.955,?,1.0.0.483,1,-464453488,Professional,2.0.10.353,2.0.10.353,10/12/2017,12/10/2017 10:59,11:59:10,2.0.10.248,1,1,1,1,M1,List1,1,1,1,1,NULL,NULL,NULL,Prac1,BlockList1,3,NULL,NULL,NULL,w,NULL,NULL,NULL,4,2,3,NULL,NULL,NULL,TrialProc47,PracTrials1,red,e,1,w,591
Individual,6,1,"<?xml version=""1.0""?>\n<Clock xmlns:dt=""urn:schemas-microsoft-com:datatypes""><Description dt:dt=""string"">E-Prime Primary Realtime Clock</Description><StartTime><Timestamp dt:dt=""int"">0</Timestamp><DateUtc dt:dt=""string"">2017-10-12T10:59:10Z</DateUtc></StartTime><FrequencyChanges><FrequencyChange><Frequency dt:dt=""r8"">2923154</Frequency><Timestamp dt:dt=""r8"">759744201314</Timestamp><Current dt:dt=""r8"">0</Current><DateUtc dt:dt=""string"">2017-10-12T10:59:10Z</DateUtc></FrequencyChange></FrequencyChanges></Clock>\n",Individual-006-1,59.955,?,1.0.0.483,1,-464453488,Professional,2.0.10.353,2.0.10.353,10/12/2017,12/10/2017 10:59,11:59:10,2.0.10.248,1,1,1,1,M1,List1,1,1,1,1,NULL,NULL,NULL,Prac1,BlockList1,4,NULL,NULL,NULL,w,NULL,NULL,NULL,15,2,4,NULL,NULL,NULL,TrialProc47,PracTrials1,red,w,1,w,454
Individual,6,1,"<?xml version=""1.0""?>\n<Clock xmlns:dt=""urn:schemas-microsoft-com:datatypes""><Description dt:dt=""string"">E-Prime Primary Realtime Clock</Description><StartTime><Timestamp dt:dt=""int"">0</Timestamp><DateUtc dt:dt=""string"">2017-10-12T10:59:10Z</DateUtc></StartTime><FrequencyChanges><FrequencyChange><Frequency dt:dt=""r8"">2923154</Frequency><Timestamp dt:dt=""r8"">759744201314</Timestamp><Current dt:dt=""r8"">0</Current><DateUtc dt:dt=""string"">2017-10-12T10:59:10Z</DateUtc></FrequencyChange></FrequencyChanges></Clock>\n",Individual-006-1,59.955,?,1.0.0.483,1,-464453488,Professional,2.0.10.353,2.0.10.353,10/12/2017,12/10/2017 10:59,11:59:10,2.0.10.248,1,1,1,1,M1,List1,1,1,1,1,NULL,NULL,NULL,Prac1,BlockList1,5,NULL,NULL,NULL,e,NULL,NULL,NULL,6,2,5,NULL,NULL,NULL,TrialProc47,PracTrials1,blue,w,1,e,450
Individual,6,1,"<?xml version=""1.0""?>\n<Clock xmlns:dt=""urn:schemas-microsoft-com:datatypes""><Description dt:dt=""string"">E-Prime Primary Realtime Clock</Description><StartTime><Timestamp dt:dt=""int"">0</Timestamp><DateUtc dt:dt=""string"">2017-10-12T10:59:10Z</DateUtc></StartTime><FrequencyChanges><FrequencyChange><Frequency dt:dt=""r8"">2923154</Frequency><Timestamp dt:dt=""r8"">759744201314</Timestamp><Current dt:dt=""r8"">0</Current><DateUtc dt:dt=""string"">2017-10-12T10:59:10Z</DateUtc></FrequencyChange></FrequencyChanges></Clock>\n",Individual-006-1,59.955,?,1.0.0.483,1,-464453488,Professional,2.0.10.353,2.0.10.353,10/12/2017,12/10/2017 10:59,11:59:10,2.0.10.248,1,1,1,1,M1,List1,1,1,1,1,NULL,NULL,NULL,Prac1,BlockList1,6,NULL,NULL,NULL,e,NULL,NULL,NULL,9,2,6,NULL,NULL,NULL,TrialProc47,PracTrials1,blue,e,1,e,502
Individual,6,1,"<?xml version=""1.0""?>\n<Clock xmlns:dt=""urn:schemas-microsoft-com:datatypes""><Description dt:dt=""string"">E-Prime Primary Realtime Clock</Description><StartTime><Timestamp dt:dt=""int"">0</Timestamp><DateUtc dt:dt=""string"">2017-10-12T10:59:10Z</DateUtc></StartTime><FrequencyChanges><FrequencyChange><Frequency dt:dt=""r8"">2923154</Frequency><Timestamp dt:dt=""r8"">759744201314</Timestamp><Current dt:dt=""r8"">0</Current><DateUtc dt:dt=""string"">2017-10-12T10:59:10Z</DateUtc></FrequencyChange></FrequencyChanges></Clock>\n",Individual-006-1,59.955,?,1.0.0.483,1,-464453488,Professional,2.0.10.353,2.0.10.353,10/12/2017,12/10/2017 10:59,11:59:10,2.0.10.248,1,1,1,1,M1,List1,1,1,1,1,NULL,NULL,NULL,Prac1,BlockList1,7,NULL,NULL,NULL,e,NULL,NULL,NULL,13,2,7,NULL,NULL,NULL,TrialProc47,PracTrials1,blue,e,1,e,414
Individual,6,1,"<?xml version=""1.0""?>\n<Clock xmlns:dt=""urn:schemas-microsoft-com:datatypes""><Description dt:dt=""string"">E-Prime Primary Realtime Clock</Description><StartTime><Timestamp dt:dt=""int"">0</Timestamp><DateUtc dt:dt=""string"">2017-10-12T10:59:10Z</DateUtc></StartTime><FrequencyChanges><FrequencyChange><Frequency dt:dt=""r8"">2923154</Frequency><Timestamp dt:dt=""r8"">759744201314</Timestamp><Current dt:dt=""r8"">0</Current><DateUtc dt:dt=""string"">2017-10-12T10:59:10Z</DateUtc></FrequencyChange></FrequencyChanges></Clock>\n",Individual-006-1,59.955,?,1.0.0.483,1,-464453488,Professional,2.0.10.353,2.0.10.353,10/12/2017,12/10/2017 10:59,11:59:10,2.0.10.248,1,1,1,1,M1,List1,1,1,1,1,NULL,NULL,NULL,Prac1,BlockList1,8,NULL,NULL,NULL,e,NULL,NULL,NULL,5,2,8,NULL,NULL,NULL,TrialProc47,PracTrials1,blue,e,1,e,375
Individual,6,1,"<?xml version=""1.0""?>\n<Clock xmlns:dt=""urn:schemas-microsoft-com:datatypes""><Description dt:dt=""string"">E-Prime Primary Realtime Clock</Description><StartTime><Timestamp dt:dt=""int"">0</Timestamp><DateUtc dt:dt=""string"">2017-10-12T10:59:10Z</DateUtc></StartTime><FrequencyChanges><FrequencyChange><Frequency dt:dt=""r8"">2923154</Frequency><Timestamp dt:dt=""r8"">759744201314</Timestamp><Current dt:dt=""r8"">0</Current><DateUtc dt:dt=""string"">2017-10-12T10:59:10Z</DateUtc></FrequencyChange></FrequencyChanges></Clock>\n",Individual-006-1,59.955,?,1.0.0.483,1,-464453488,Professional,2.0.10.353,2.0.10.353,10/12/2017,12/10/2017 10:59,11:59:10,2.0.10.248,1,1,1,1,M1,List1,1,1,1,1,NULL,NULL,NULL,Prac1,BlockList1,9,NULL,NULL,NULL,w,NULL,NULL,NULL,16,2,9,NULL,NULL,NULL,TrialProc47,PracTrials1,red,e,1,w,519
Individual,6,1,"<?xml version=""1.0""?>\n<Clock xmlns:dt=""urn:schemas-microsoft-com:datatypes""><Description dt:dt=""string"">E-Prime Primary Realtime Clock</Description><StartTime><Timestamp dt:dt=""int"">0</Timestamp><DateUtc dt:dt=""string"">2017-10-12T10:59:10Z</DateUtc></StartTime><FrequencyChanges><FrequencyChange><Frequency dt:dt=""r8"">2923154</Frequency><Timestamp dt:dt=""r8"">759744201314</Timestamp><Current dt:dt=""r8"">0</Current><DateUtc dt:dt=""string"">2017-10-12T10:59:10Z</DateUtc></FrequencyChange></FrequencyChanges></Clock>\n",Individual-006-1,59.955,?,1.0.0.483,1,-464453488,Professional,2.0.10.353,2.0.10.353,10/12/2017,12/10/2017 10:59,11:59:10,2.0.10.248,1,1,1,1,M1,List1,1,1,1,1,NULL,NULL,NULL,Prac1,BlockList1,10,NULL,NULL,NULL,e,NULL,NULL,NULL,2,2,10,NULL,NULL,NULL,TrialProc47,PracTrials1,blue,w,1,e,429
Individual,6,1,"<?xml version=""1.0""?>\n<Clock xmlns:dt=""urn:schemas-microsoft-com:datatypes""><Description dt:dt=""string"">E-Prime Primary Realtime Clock</Description><StartTime><Timestamp dt:dt=""int"">0</Timestamp><DateUtc dt:dt=""string"">2017-10-12T10:59:10Z</DateUtc></StartTime><FrequencyChanges><FrequencyChange><Frequency dt:dt=""r8"">2923154</Frequency><Timestamp dt:dt=""r8"">759744201314</Timestamp><Current dt:dt=""r8"">0</Current><DateUtc dt:dt=""string"">2017-10-12T10:59:10Z</DateUtc></FrequencyChange></FrequencyChanges></Clock>\n",Individual-006-1,59.955,?,1.0.0.483,1,-464453488,Professional,2.0.10.353,2.0.10.353,10/12/2017,12/10/2017 10:59,11:59:10,2.0.10.248,1,1,1,1,M1,List1,1,1,1,1,NULL,NULL,NULL,Prac1,BlockList1,11,NULL,NULL,NULL,e,NULL,NULL,NULL,14,2,11,NULL,NULL,NULL,TrialProc47,PracTrials1,blue,w,1,e,439
Individual,6,1,"<?xml version=""1.0""?>\n<Clock xmlns:dt=""urn:schemas-microsoft-com:datatypes""><Description dt:dt=""string"">E-Prime Primary Realtime Clock</Description><StartTime><Timestamp dt:dt=""int"">0</Timestamp><DateUtc dt:dt=""string"">2017-10-12T10:59:10Z</DateUtc></StartTime><FrequencyChanges><FrequencyChange><Frequency dt:dt=""r8"">2923154</Frequency><Timestamp dt:dt=""r8"">759744201314</Timestamp><Current dt:dt=""r8"">0</Current><DateUtc dt:dt=""string"">2017-10-12T10:59:10Z</DateUtc></FrequencyChange></FrequencyChanges></Clock>\n",Individual-006-1,59.955,?,1.0.0.483,1,-464453488,Professional,2.0.10.353,2.0.10.353,10/12/2017,12/10/2017 10:59,11:59:10,2.0.10.248,1,1,1,1,M1,List1,1,1,1,1,NULL,NULL,NULL,Prac1,BlockList1,12,NULL,NULL,NULL,e,NULL,NULL,NULL,1,2,12,NULL,NULL,NULL,TrialProc47,PracTrials1,blue,e,1,e,521
Individual,6,1,"<?xml version=""1.0""?>\n<Clock xmlns:dt=""urn:schemas-microsoft-com:datatypes""><Description dt:dt=""string"">E-Prime Primary Realtime Clock</Description><StartTime><Timestamp dt:dt=""int"">0</Timestamp><DateUtc dt:dt=""string"">2017-10-12T10:59:10Z</DateUtc></StartTime><FrequencyChanges><FrequencyChange><Frequency dt:dt=""r8"">2923154</Frequency><Timestamp dt:dt=""r8"">759744201314</Timestamp><Current dt:dt=""r8"">0</Current><DateUtc dt:dt=""string"">2017-10-12T10:59:10Z</DateUtc></FrequencyChange></FrequencyChanges></Clock>\n",Individual-006-1,59.955,?,1.0.0.483,1,-464453488,Professional,2.0.10.353,2.0.10.353,10/12/2017,12/10/2017 10:59,11:59:10,2.0.10.248,1,1,1,1,M1,List1,1,1,1,1,NULL,NULL,NULL,Prac1,BlockList1,13,NULL,NULL,NULL,w,NULL,NULL,NULL,12,2,13,NULL,NULL,NULL,TrialProc47,PracTrials1,red,e,1,w,385
Individual,6,1,"<?xml version=""1.0""?>\n<Clock xmlns:dt=""urn:schemas-microsoft-com:datatypes""><Description dt:dt=""string"">E-Prime Primary Realtime Clock</Description><StartTime><Timestamp dt:dt=""int"">0</Timestamp><DateUtc dt:dt=""string"">2017-10-12T10:59:10Z</DateUtc></StartTime><FrequencyChanges><FrequencyChange><Frequency dt:dt=""r8"">2923154</Frequency><Timestamp dt:dt=""r8"">759744201314</Timestamp><Current dt:dt=""r8"">0</Current><DateUtc dt:dt=""string"">2017-10-12T10:59:10Z</DateUtc></FrequencyChange></FrequencyChanges></Clock>\n",Individual-006-1,59.955,?,1.0.0.483,1,-464453488,Professional,2.0.10.353,2.0.10.353,10/12/2017,12/10/2017 10:59,11:59:10,2.0.10.248,1,1,1,1,M1,List1,1,1,1,1,NULL,NULL,NULL,Prac1,BlockList1,14,NULL,NULL,NULL,w,NULL,NULL,NULL,11,2,14,NULL,NULL,NULL,TrialProc47,PracTrials1,red,w,1,w,343
Individual,6,1,"<?xml version=""1.0""?>\n<Clock xmlns:dt=""urn:schemas-microsoft-com:datatypes""><Description dt:dt=""string"">E-Prime Primary Realtime Clock</Description><StartTime><Timestamp dt:dt=""int"">0</Timestamp><DateUtc dt:dt=""string"">2017-10-12T10:59:10Z</DateUtc></StartTime><FrequencyChanges><FrequencyChange><Frequency dt:dt=""r8"">2923154</Frequency><Timestamp dt:dt=""r8"">759744201314</Timestamp><Current dt:dt=""r8"">0</Current><DateUtc dt:dt=""string"">2017-10-12T10:59:10Z</DateUtc></FrequencyChange></FrequencyChanges></Clock>\n",Individual-006-1,59.955,?,1.0.0.483,1,-464453488,Professional,2.0.10.353,2.0.10.353,10/12/2017,12/10/2017 10:59,11:59:10,2.0.10.248,1,1,1,1,M1,List1,1,1,1,1,NULL,NULL,NULL,Prac1,BlockList1,15,NULL,NULL,NULL,w,NULL,NULL,NULL,3,2,15,NULL,NULL,NULL,TrialProc47,PracTrials1,red,w,1,w,340
Individual,6,1,"<?xml version=""1.0""?>\n<Clock xmlns:dt=""urn:schemas-microsoft-com:datatypes""><Description dt:dt=""string"">E-Prime Primary Realtime Clock</Description><StartTime><Timestamp dt:dt=""int"">0</Timestamp><DateUtc dt:dt=""string"">2017-10-12T10:59:10Z</DateUtc></StartTime><FrequencyChanges><FrequencyChange><Frequency dt:dt=""r8"">2923154</Frequency><Timestamp dt:dt=""r8"">759744201314</Timestamp><Current dt:dt=""r8"">0</Current><DateUtc dt:dt=""string"">2017-10-12T10:59:10Z</DateUtc></FrequencyChange></FrequencyChanges></Clock>\n",Individual-006-1,59.955,?,1.0.0.483,1,-464453488,Professional,2.0.10.353,2.0.10.353,10/12/2017,12/10/2017 10:59,11:59:10,2.0.10.248,1,1,1,1,M1,List1,1,1,1,1,NULL,NULL,NULL,Prac1,BlockList1,16,NULL,NULL,NULL,e,NULL,NULL,NULL,10,2,16,NULL,NULL,NULL,TrialProc47,PracTrials1,blue,w,1,e,404
Individual,6,1,"<?xml version=""1.0""?>\n<Clock xmlns:dt=""urn:schemas-microsoft-com:datatypes""><Description dt:dt=""string"">E-Prime Primary Realtime Clock</Description><StartTime><Timestamp dt:dt=""int"">0</Timestamp><DateUtc dt:dt=""string"">2017-10-12T10:59:10Z</DateUtc></StartTime><FrequencyChanges><FrequencyChange><Frequency dt:dt=""r8"">2923154</Frequency><Timestamp dt:dt=""r8"">759744201314</Timestamp><Current dt:dt=""r8"">0</Current><DateUtc dt:dt=""string"">2017-10-12T10:59:10Z</DateUtc></FrequencyChange></FrequencyChanges></Clock>\n",Individual-006-1,59.955,?,1.0.0.483,1,-464453488,Professional,2.0.10.353,2.0.10.353,10/12/2017,12/10/2017 10:59,11:59:10,2.0.10.248,1,1,1,1,M1,List1,2,2,1,2,NULL,NULL,NULL,InstruProc,BlockList1,NULL,NULL,NULL,NULL,NULL,NULL,NULL,NULL,NULL,NULL,NULL,NULL,NULL,NULL,NULL,NULL,NULL,NULL,NULL,NULL,NULL
Individual,6,1,"<?xml version=""1.0""?>\n<Clock xmlns:dt=""urn:schemas-microsoft-com:datatypes""><Description dt:dt=""string"">E-Prime Primary Realtime Clock</Description><StartTime><Timestamp dt:dt=""int"">0</Timestamp><DateUtc dt:dt=""string"">2017-10-12T10:59:10Z</DateUtc></StartTime><FrequencyChanges><FrequencyChange><Frequency dt:dt=""r8"">2923154</Frequency><Timestamp dt:dt=""r8"">759744201314</Timestamp><Current dt:dt=""r8"">0</Current><DateUtc dt:dt=""string"">2017-10-12T10:59:10Z</DateUtc></FrequencyChange></FrequencyChanges></Clock>\n",Individual-006-1,59.955,?,1.0.0.483,1,-464453488,Professional,2.0.10.353,2.0.10.353,10/12/2017,12/10/2017 10:59,11:59:10,2.0.10.248,1,1,1,1,M1,List1,3,3,1,3,NULL,NULL,NULL,b1,BlockList1,1,22,2,1,e,NULL,NULL,NULL,NULL,NULL,NULL,NULL,NULL,NULL,TrialProc4,b1trails1,blue,w,1,e,849
Individual,6,1,"<?xml version=""1.0""?>\n<Clock xmlns:dt=""urn:schemas-microsoft-com:datatypes""><Description dt:dt=""string"">E-Prime Primary Realtime Clock</Description><StartTime><Timestamp dt:dt=""int"">0</Timestamp><DateUtc dt:dt=""string"">2017-10-12T10:59:10Z</DateUtc></StartTime><FrequencyChanges><FrequencyChange><Frequency dt:dt=""r8"">2923154</Frequency><Timestamp dt:dt=""r8"">759744201314</Timestamp><Current dt:dt=""r8"">0</Current><DateUtc dt:dt=""string"">2017-10-12T10:59:10Z</DateUtc></FrequencyChange></FrequencyChanges></Clock>\n",Individual-006-1,59.955,?,1.0.0.483,1,-464453488,Professional,2.0.10.353,2.0.10.353,10/12/2017,12/10/2017 10:59,11:59:10,2.0.10.248,1,1,1,1,M1,List1,3,3,1,3,NULL,NULL,NULL,b1,BlockList1,2,83,2,2,w,NULL,NULL,NULL,NULL,NULL,NULL,NULL,NULL,NULL,TrialProc4,b1trails1,red,w,1,w,427
Individual,6,1,"<?xml version=""1.0""?>\n<Clock xmlns:dt=""urn:schemas-microsoft-com:datatypes""><Description dt:dt=""string"">E-Prime Primary Realtime Clock</Description><StartTime><Timestamp dt:dt=""int"">0</Timestamp><DateUtc dt:dt=""string"">2017-10-12T10:59:10Z</DateUtc></StartTime><FrequencyChanges><FrequencyChange><Frequency dt:dt=""r8"">2923154</Frequency><Timestamp dt:dt=""r8"">759744201314</Timestamp><Current dt:dt=""r8"">0</Current><DateUtc dt:dt=""string"">2017-10-12T10:59:10Z</DateUtc></FrequencyChange></FrequencyChanges></Clock>\n",Individual-006-1,59.955,?,1.0.0.483,1,-464453488,Professional,2.0.10.353,2.0.10.353,10/12/2017,12/10/2017 10:59,11:59:10,2.0.10.248,1,1,1,1,M1,List1,3,3,1,3,NULL,NULL,NULL,b1,BlockList1,3,25,2,3,e,NULL,NULL,NULL,NULL,NULL,NULL,NULL,NULL,NULL,TrialProc4,b1trails1,blue,e,1,e,400
Individual,6,1,"<?xml version=""1.0""?>\n<Clock xmlns:dt=""urn:schemas-microsoft-com:datatypes""><Description dt:dt=""string"">E-Prime Primary Realtime Clock</Description><StartTime><Timestamp dt:dt=""int"">0</Timestamp><DateUtc dt:dt=""string"">2017-10-12T10:59:10Z</DateUtc></StartTime><FrequencyChanges><FrequencyChange><Frequency dt:dt=""r8"">2923154</Frequency><Timestamp dt:dt=""r8"">759744201314</Timestamp><Current dt:dt=""r8"">0</Current><DateUtc dt:dt=""string"">2017-10-12T10:59:10Z</DateUtc></FrequencyChange></FrequencyChanges></Clock>\n",Individual-006-1,59.955,?,1.0.0.483,1,-464453488,Professional,2.0.10.353,2.0.10.353,10/12/2017,12/10/2017 10:59,11:59:10,2.0.10.248,1,1,1,1,M1,List1,3,3,1,3,NULL,NULL,NULL,b1,BlockList1,4,66,2,4,e,NULL,NULL,NULL,NULL,NULL,NULL,NULL,NULL,NULL,TrialProc4,b1trails1,blue,w,1,e,497
Individual,6,1,"<?xml version=""1.0""?>\n<Clock xmlns:dt=""urn:schemas-microsoft-com:datatypes""><Description dt:dt=""string"">E-Prime Primary Realtime Clock</Description><StartTime><Timestamp dt:dt=""int"">0</Timestamp><DateUtc dt:dt=""string"">2017-10-12T10:59:10Z</DateUtc></StartTime><FrequencyChanges><FrequencyChange><Frequency dt:dt=""r8"">2923154</Frequency><Timestamp dt:dt=""r8"">759744201314</Timestamp><Current dt:dt=""r8"">0</Current><DateUtc dt:dt=""string"">2017-10-12T10:59:10Z</DateUtc></FrequencyChange></FrequencyChanges></Clock>\n",Individual-006-1,59.955,?,1.0.0.483,1,-464453488,Professional,2.0.10.353,2.0.10.353,10/12/2017,12/10/2017 10:59,11:59:10,2.0.10.248,1,1,1,1,M1,List1,3,3,1,3,NULL,NULL,NULL,b1,BlockList1,5,71,2,5,w,NULL,NULL,NULL,NULL,NULL,NULL,NULL,NULL,NULL,TrialProc4,b1trails1,red,w,1,w,342
Individual,6,1,"<?xml version=""1.0""?>\n<Clock xmlns:dt=""urn:schemas-microsoft-com:datatypes""><Description dt:dt=""string"">E-Prime Primary Realtime Clock</Description><StartTime><Timestamp dt:dt=""int"">0</Timestamp><DateUtc dt:dt=""string"">2017-10-12T10:59:10Z</DateUtc></StartTime><FrequencyChanges><FrequencyChange><Frequency dt:dt=""r8"">2923154</Frequency><Timestamp dt:dt=""r8"">759744201314</Timestamp><Current dt:dt=""r8"">0</Current><DateUtc dt:dt=""string"">2017-10-12T10:59:10Z</DateUtc></FrequencyChange></FrequencyChanges></Clock>\n",Individual-006-1,59.955,?,1.0.0.483,1,-464453488,Professional,2.0.10.353,2.0.10.353,10/12/2017,12/10/2017 10:59,11:59:10,2.0.10.248,1,1,1,1,M1,List1,3,3,1,3,NULL,NULL,NULL,b1,BlockList1,6,8,2,6,w,NULL,NULL,NULL,NULL,NULL,NULL,NULL,NULL,NULL,TrialProc4,b1trails1,red,e,1,w,455
Individual,6,1,"<?xml version=""1.0""?>\n<Clock xmlns:dt=""urn:schemas-microsoft-com:datatypes""><Description dt:dt=""string"">E-Prime Primary Realtime Clock</Description><StartTime><Timestamp dt:dt=""int"">0</Timestamp><DateUtc dt:dt=""string"">2017-10-12T10:59:10Z</DateUtc></StartTime><FrequencyChanges><FrequencyChange><Frequency dt:dt=""r8"">2923154</Frequency><Timestamp dt:dt=""r8"">759744201314</Timestamp><Current dt:dt=""r8"">0</Current><DateUtc dt:dt=""string"">2017-10-12T10:59:10Z</DateUtc></FrequencyChange></FrequencyChanges></Clock>\n",Individual-006-1,59.955,?,1.0.0.483,1,-464453488,Professional,2.0.10.353,2.0.10.353,10/12/2017,12/10/2017 10:59,11:59:10,2.0.10.248,1,1,1,1,M1,List1,3,3,1,3,NULL,NULL,NULL,b1,BlockList1,7,41,2,7,e,NULL,NULL,NULL,NULL,NULL,NULL,NULL,NULL,NULL,TrialProc4,b1trails1,blue,e,1,e,616
Individual,6,1,"<?xml version=""1.0""?>\n<Clock xmlns:dt=""urn:schemas-microsoft-com:datatypes""><Description dt:dt=""string"">E-Prime Primary Realtime Clock</Description><StartTime><Timestamp dt:dt=""int"">0</Timestamp><DateUtc dt:dt=""string"">2017-10-12T10:59:10Z</DateUtc></StartTime><FrequencyChanges><FrequencyChange><Frequency dt:dt=""r8"">2923154</Frequency><Timestamp dt:dt=""r8"">759744201314</Timestamp><Current dt:dt=""r8"">0</Current><DateUtc dt:dt=""string"">2017-10-12T10:59:10Z</DateUtc></FrequencyChange></FrequencyChanges></Clock>\n",Individual-006-1,59.955,?,1.0.0.483,1,-464453488,Professional,2.0.10.353,2.0.10.353,10/12/2017,12/10/2017 10:59,11:59:10,2.0.10.248,1,1,1,1,M1,List1,3,3,1,3,NULL,NULL,NULL,b1,BlockList1,8,48,2,8,w,NULL,NULL,NULL,NULL,NULL,NULL,NULL,NULL,NULL,TrialProc4,b1trails1,red,e,1,w,342
Individual,6,1,"<?xml version=""1.0""?>\n<Clock xmlns:dt=""urn:schemas-microsoft-com:datatypes""><Description dt:dt=""string"">E-Prime Primary Realtime Clock</Description><StartTime><Timestamp dt:dt=""int"">0</Timestamp><DateUtc dt:dt=""string"">2017-10-12T10:59:10Z</DateUtc></StartTime><FrequencyChanges><FrequencyChange><Frequency dt:dt=""r8"">2923154</Frequency><Timestamp dt:dt=""r8"">759744201314</Timestamp><Current dt:dt=""r8"">0</Current><DateUtc dt:dt=""string"">2017-10-12T10:59:10Z</DateUtc></FrequencyChange></FrequencyChanges></Clock>\n",Individual-006-1,59.955,?,1.0.0.483,1,-464453488,Professional,2.0.10.353,2.0.10.353,10/12/2017,12/10/2017 10:59,11:59:10,2.0.10.248,1,1,1,1,M1,List1,3,3,1,3,NULL,NULL,NULL,b1,BlockList1,9,89,2,9,e,NULL,NULL,NULL,NULL,NULL,NULL,NULL,NULL,NULL,TrialProc4,b1trails1,blue,e,1,e,389
Individual,6,1,"<?xml version=""1.0""?>\n<Clock xmlns:dt=""urn:schemas-microsoft-com:datatypes""><Description dt:dt=""string"">E-Prime Primary Realtime Clock</Description><StartTime><Timestamp dt:dt=""int"">0</Timestamp><DateUtc dt:dt=""string"">2017-10-12T10:59:10Z</DateUtc></StartTime><FrequencyChanges><FrequencyChange><Frequency dt:dt=""r8"">2923154</Frequency><Timestamp dt:dt=""r8"">759744201314</Timestamp><Current dt:dt=""r8"">0</Current><DateUtc dt:dt=""string"">2017-10-12T10:59:10Z</DateUtc></FrequencyChange></FrequencyChanges></Clock>\n",Individual-006-1,59.955,?,1.0.0.483,1,-464453488,Professional,2.0.10.353,2.0.10.353,10/12/2017,12/10/2017 10:59,11:59:10,2.0.10.248,1,1,1,1,M1,List1,3,3,1,3,NULL,NULL,NULL,b1,BlockList1,10,68,2,10,w,NULL,NULL,NULL,NULL,NULL,NULL,NULL,NULL,NULL,TrialProc4,b1trails1,red,e,1,w,323
Individual,6,1,"<?xml version=""1.0""?>\n<Clock xmlns:dt=""urn:schemas-microsoft-com:datatypes""><Description dt:dt=""string"">E-Prime Primary Realtime Clock</Description><StartTime><Timestamp dt:dt=""int"">0</Timestamp><DateUtc dt:dt=""string"">2017-10-12T10:59:10Z</DateUtc></StartTime><FrequencyChanges><FrequencyChange><Frequency dt:dt=""r8"">2923154</Frequency><Timestamp dt:dt=""r8"">759744201314</Timestamp><Current dt:dt=""r8"">0</Current><DateUtc dt:dt=""string"">2017-10-12T10:59:10Z</DateUtc></FrequencyChange></FrequencyChanges></Clock>\n",Individual-006-1,59.955,?,1.0.0.483,1,-464453488,Professional,2.0.10.353,2.0.10.353,10/12/2017,12/10/2017 10:59,11:59:10,2.0.10.248,1,1,1,1,M1,List1,3,3,1,3,NULL,NULL,NULL,b1,BlockList1,11,23,2,11,w,NULL,NULL,NULL,NULL,NULL,NULL,NULL,NULL,NULL,TrialProc4,b1trails1,red,w,1,w,366
Individual,6,1,"<?xml version=""1.0""?>\n<Clock xmlns:dt=""urn:schemas-microsoft-com:datatypes""><Description dt:dt=""string"">E-Prime Primary Realtime Clock</Description><StartTime><Timestamp dt:dt=""int"">0</Timestamp><DateUtc dt:dt=""string"">2017-10-12T10:59:10Z</DateUtc></StartTime><FrequencyChanges><FrequencyChange><Frequency dt:dt=""r8"">2923154</Frequency><Timestamp dt:dt=""r8"">759744201314</Timestamp><Current dt:dt=""r8"">0</Current><DateUtc dt:dt=""string"">2017-10-12T10:59:10Z</DateUtc></FrequencyChange></FrequencyChanges></Clock>\n",Individual-006-1,59.955,?,1.0.0.483,1,-464453488,Professional,2.0.10.353,2.0.10.353,10/12/2017,12/10/2017 10:59,11:59:10,2.0.10.248,1,1,1,1,M1,List1,3,3,1,3,NULL,NULL,NULL,b1,BlockList1,12,94,2,12,e,NULL,NULL,NULL,NULL,NULL,NULL,NULL,NULL,NULL,TrialProc4,b1trails1,blue,w,1,e,394
Individual,6,1,"<?xml version=""1.0""?>\n<Clock xmlns:dt=""urn:schemas-microsoft-com:datatypes""><Description dt:dt=""string"">E-Prime Primary Realtime Clock</Description><StartTime><Timestamp dt:dt=""int"">0</Timestamp><DateUtc dt:dt=""string"">2017-10-12T10:59:10Z</DateUtc></StartTime><FrequencyChanges><FrequencyChange><Frequency dt:dt=""r8"">2923154</Frequency><Timestamp dt:dt=""r8"">759744201314</Timestamp><Current dt:dt=""r8"">0</Current><DateUtc dt:dt=""string"">2017-10-12T10:59:10Z</DateUtc></FrequencyChange></FrequencyChanges></Clock>\n",Individual-006-1,59.955,?,1.0.0.483,1,-464453488,Professional,2.0.10.353,2.0.10.353,10/12/2017,12/10/2017 10:59,11:59:10,2.0.10.248,1,1,1,1,M1,List1,3,3,1,3,NULL,NULL,NULL,b1,BlockList1,13,9,2,13,e,NULL,NULL,NULL,NULL,NULL,NULL,NULL,NULL,NULL,TrialProc4,b1trails1,blue,e,1,e,389
Individual,6,1,"<?xml version=""1.0""?>\n<Clock xmlns:dt=""urn:schemas-microsoft-com:datatypes""><Description dt:dt=""string"">E-Prime Primary Realtime Clock</Description><StartTime><Timestamp dt:dt=""int"">0</Timestamp><DateUtc dt:dt=""string"">2017-10-12T10:59:10Z</DateUtc></StartTime><FrequencyChanges><FrequencyChange><Frequency dt:dt=""r8"">2923154</Frequency><Timestamp dt:dt=""r8"">759744201314</Timestamp><Current dt:dt=""r8"">0</Current><DateUtc dt:dt=""string"">2017-10-12T10:59:10Z</DateUtc></FrequencyChange></FrequencyChanges></Clock>\n",Individual-006-1,59.955,?,1.0.0.483,1,-464453488,Professional,2.0.10.353,2.0.10.353,10/12/2017,12/10/2017 10:59,11:59:10,2.0.10.248,1,1,1,1,M1,List1,3,3,1,3,NULL,NULL,NULL,b1,BlockList1,14,28,2,14,w,NULL,NULL,NULL,NULL,NULL,NULL,NULL,NULL,NULL,TrialProc4,b1trails1,red,e,1,w,379
Individual,6,1,"<?xml version=""1.0""?>\n<Clock xmlns:dt=""urn:schemas-microsoft-com:datatypes""><Description dt:dt=""string"">E-Prime Primary Realtime Clock</Description><StartTime><Timestamp dt:dt=""int"">0</Timestamp><DateUtc dt:dt=""string"">2017-10-12T10:59:10Z</DateUtc></StartTime><FrequencyChanges><FrequencyChange><Frequency dt:dt=""r8"">2923154</Frequency><Timestamp dt:dt=""r8"">759744201314</Timestamp><Current dt:dt=""r8"">0</Current><DateUtc dt:dt=""string"">2017-10-12T10:59:10Z</DateUtc></FrequencyChange></FrequencyChanges></Clock>\n",Individual-006-1,59.955,?,1.0.0.483,1,-464453488,Professional,2.0.10.353,2.0.10.353,10/12/2017,12/10/2017 10:59,11:59:10,2.0.10.248,1,1,1,1,M1,List1,3,3,1,3,NULL,NULL,NULL,b1,BlockList1,15,29,2,15,e,NULL,NULL,NULL,NULL,NULL,NULL,NULL,NULL,NULL,TrialProc4,b1trails1,blue,e,1,e,450
Individual,6,1,"<?xml version=""1.0""?>\n<Clock xmlns:dt=""urn:schemas-microsoft-com:datatypes""><Description dt:dt=""string"">E-Prime Primary Realtime Clock</Description><StartTime><Timestamp dt:dt=""int"">0</Timestamp><DateUtc dt:dt=""string"">2017-10-12T10:59:10Z</DateUtc></StartTime><FrequencyChanges><FrequencyChange><Frequency dt:dt=""r8"">2923154</Frequency><Timestamp dt:dt=""r8"">759744201314</Timestamp><Current dt:dt=""r8"">0</Current><DateUtc dt:dt=""string"">2017-10-12T10:59:10Z</DateUtc></FrequencyChange></FrequencyChanges></Clock>\n",Individual-006-1,59.955,?,1.0.0.483,1,-464453488,Professional,2.0.10.353,2.0.10.353,10/12/2017,12/10/2017 10:59,11:59:10,2.0.10.248,1,1,1,1,M1,List1,3,3,1,3,NULL,NULL,NULL,b1,BlockList1,16,76,2,16,w,NULL,NULL,NULL,NULL,NULL,NULL,NULL,NULL,NULL,TrialProc4,b1trails1,red,e,1,w,407
Individual,6,1,"<?xml version=""1.0""?>\n<Clock xmlns:dt=""urn:schemas-microsoft-com:datatypes""><Description dt:dt=""string"">E-Prime Primary Realtime Clock</Description><StartTime><Timestamp dt:dt=""int"">0</Timestamp><DateUtc dt:dt=""string"">2017-10-12T10:59:10Z</DateUtc></StartTime><FrequencyChanges><FrequencyChange><Frequency dt:dt=""r8"">2923154</Frequency><Timestamp dt:dt=""r8"">759744201314</Timestamp><Current dt:dt=""r8"">0</Current><DateUtc dt:dt=""string"">2017-10-12T10:59:10Z</DateUtc></FrequencyChange></FrequencyChanges></Clock>\n",Individual-006-1,59.955,?,1.0.0.483,1,-464453488,Professional,2.0.10.353,2.0.10.353,10/12/2017,12/10/2017 10:59,11:59:10,2.0.10.248,1,1,1,1,M1,List1,3,3,1,3,NULL,NULL,NULL,b1,BlockList1,17,54,2,17,e,NULL,NULL,NULL,NULL,NULL,NULL,NULL,NULL,NULL,TrialProc4,b1trails1,blue,w,1,e,445
Individual,6,1,"<?xml version=""1.0""?>\n<Clock xmlns:dt=""urn:schemas-microsoft-com:datatypes""><Description dt:dt=""string"">E-Prime Primary Realtime Clock</Description><StartTime><Timestamp dt:dt=""int"">0</Timestamp><DateUtc dt:dt=""string"">2017-10-12T10:59:10Z</DateUtc></StartTime><FrequencyChanges><FrequencyChange><Frequency dt:dt=""r8"">2923154</Frequency><Timestamp dt:dt=""r8"">759744201314</Timestamp><Current dt:dt=""r8"">0</Current><DateUtc dt:dt=""string"">2017-10-12T10:59:10Z</DateUtc></FrequencyChange></FrequencyChanges></Clock>\n",Individual-006-1,59.955,?,1.0.0.483,1,-464453488,Professional,2.0.10.353,2.0.10.353,10/12/2017,12/10/2017 10:59,11:59:10,2.0.10.248,1,1,1,1,M1,List1,3,3,1,3,NULL,NULL,NULL,b1,BlockList1,18,84,2,18,w,NULL,NULL,NULL,NULL,NULL,NULL,NULL,NULL,NULL,TrialProc4,b1trails1,red,e,1,w,524
Individual,6,1,"<?xml version=""1.0""?>\n<Clock xmlns:dt=""urn:schemas-microsoft-com:datatypes""><Description dt:dt=""string"">E-Prime Primary Realtime Clock</Description><StartTime><Timestamp dt:dt=""int"">0</Timestamp><DateUtc dt:dt=""string"">2017-10-12T10:59:10Z</DateUtc></StartTime><FrequencyChanges><FrequencyChange><Frequency dt:dt=""r8"">2923154</Frequency><Timestamp dt:dt=""r8"">759744201314</Timestamp><Current dt:dt=""r8"">0</Current><DateUtc dt:dt=""string"">2017-10-12T10:59:10Z</DateUtc></FrequencyChange></FrequencyChanges></Clock>\n",Individual-006-1,59.955,?,1.0.0.483,1,-464453488,Professional,2.0.10.353,2.0.10.353,10/12/2017,12/10/2017 10:59,11:59:10,2.0.10.248,1,1,1,1,M1,List1,3,3,1,3,NULL,NULL,NULL,b1,BlockList1,19,10,2,19,e,NULL,NULL,NULL,NULL,NULL,NULL,NULL,NULL,NULL,TrialProc4,b1trails1,blue,w,1,e,485
Individual,6,1,"<?xml version=""1.0""?>\n<Clock xmlns:dt=""urn:schemas-microsoft-com:datatypes""><Description dt:dt=""string"">E-Prime Primary Realtime Clock</Description><StartTime><Timestamp dt:dt=""int"">0</Timestamp><DateUtc dt:dt=""string"">2017-10-12T10:59:10Z</DateUtc></StartTime><FrequencyChanges><FrequencyChange><Frequency dt:dt=""r8"">2923154</Frequency><Timestamp dt:dt=""r8"">759744201314</Timestamp><Current dt:dt=""r8"">0</Current><DateUtc dt:dt=""string"">2017-10-12T10:59:10Z</DateUtc></FrequencyChange></FrequencyChanges></Clock>\n",Individual-006-1,59.955,?,1.0.0.483,1,-464453488,Professional,2.0.10.353,2.0.10.353,10/12/2017,12/10/2017 10:59,11:59:10,2.0.10.248,1,1,1,1,M1,List1,3,3,1,3,NULL,NULL,NULL,b1,BlockList1,20,58,2,20,e,NULL,NULL,NULL,NULL,NULL,NULL,NULL,NULL,NULL,TrialProc4,b1trails1,blue,w,1,e,508
Individual,6,1,"<?xml version=""1.0""?>\n<Clock xmlns:dt=""urn:schemas-microsoft-com:datatypes""><Description dt:dt=""string"">E-Prime Primary Realtime Clock</Description><StartTime><Timestamp dt:dt=""int"">0</Timestamp><DateUtc dt:dt=""string"">2017-10-12T10:59:10Z</DateUtc></StartTime><FrequencyChanges><FrequencyChange><Frequency dt:dt=""r8"">2923154</Frequency><Timestamp dt:dt=""r8"">759744201314</Timestamp><Current dt:dt=""r8"">0</Current><DateUtc dt:dt=""string"">2017-10-12T10:59:10Z</DateUtc></FrequencyChange></FrequencyChanges></Clock>\n",Individual-006-1,59.955,?,1.0.0.483,1,-464453488,Professional,2.0.10.353,2.0.10.353,10/12/2017,12/10/2017 10:59,11:59:10,2.0.10.248,1,1,1,1,M1,List1,3,3,1,3,NULL,NULL,NULL,b1,BlockList1,21,21,2,21,e,NULL,NULL,NULL,NULL,NULL,NULL,NULL,NULL,NULL,TrialProc4,b1trails1,blue,e,1,e,539
Individual,6,1,"<?xml version=""1.0""?>\n<Clock xmlns:dt=""urn:schemas-microsoft-com:datatypes""><Description dt:dt=""string"">E-Prime Primary Realtime Clock</Description><StartTime><Timestamp dt:dt=""int"">0</Timestamp><DateUtc dt:dt=""string"">2017-10-12T10:59:10Z</DateUtc></StartTime><FrequencyChanges><FrequencyChange><Frequency dt:dt=""r8"">2923154</Frequency><Timestamp dt:dt=""r8"">759744201314</Timestamp><Current dt:dt=""r8"">0</Current><DateUtc dt:dt=""string"">2017-10-12T10:59:10Z</DateUtc></FrequencyChange></FrequencyChanges></Clock>\n",Individual-006-1,59.955,?,1.0.0.483,1,-464453488,Professional,2.0.10.353,2.0.10.353,10/12/2017,12/10/2017 10:59,11:59:10,2.0.10.248,1,1,1,1,M1,List1,3,3,1,3,NULL,NULL,NULL,b1,BlockList1,22,50,2,22,e,NULL,NULL,NULL,NULL,NULL,NULL,NULL,NULL,NULL,TrialProc4,b1trails1,blue,w,1,e,557
Individual,6,1,"<?xml version=""1.0""?>\n<Clock xmlns:dt=""urn:schemas-microsoft-com:datatypes""><Description dt:dt=""string"">E-Prime Primary Realtime Clock</Description><StartTime><Timestamp dt:dt=""int"">0</Timestamp><DateUtc dt:dt=""string"">2017-10-12T10:59:10Z</DateUtc></StartTime><FrequencyChanges><FrequencyChange><Frequency dt:dt=""r8"">2923154</Frequency><Timestamp dt:dt=""r8"">759744201314</Timestamp><Current dt:dt=""r8"">0</Current><DateUtc dt:dt=""string"">2017-10-12T10:59:10Z</DateUtc></FrequencyChange></FrequencyChanges></Clock>\n",Individual-006-1,59.955,?,1.0.0.483,1,-464453488,Professional,2.0.10.353,2.0.10.353,10/12/2017,12/10/2017 10:59,11:59:10,2.0.10.248,1,1,1,1,M1,List1,3,3,1,3,NULL,NULL,NULL,b1,BlockList1,23,7,2,23,w,NULL,NULL,NULL,NULL,NULL,NULL,NULL,NULL,NULL,TrialProc4,b1trails1,red,w,1,w,342
Individual,6,1,"<?xml version=""1.0""?>\n<Clock xmlns:dt=""urn:schemas-microsoft-com:datatypes""><Description dt:dt=""string"">E-Prime Primary Realtime Clock</Description><StartTime><Timestamp dt:dt=""int"">0</Timestamp><DateUtc dt:dt=""string"">2017-10-12T10:59:10Z</DateUtc></StartTime><FrequencyChanges><FrequencyChange><Frequency dt:dt=""r8"">2923154</Frequency><Timestamp dt:dt=""r8"">759744201314</Timestamp><Current dt:dt=""r8"">0</Current><DateUtc dt:dt=""string"">2017-10-12T10:59:10Z</DateUtc></FrequencyChange></FrequencyChanges></Clock>\n",Individual-006-1,59.955,?,1.0.0.483,1,-464453488,Professional,2.0.10.353,2.0.10.353,10/12/2017,12/10/2017 10:59,11:59:10,2.0.10.248,1,1,1,1,M1,List1,3,3,1,3,NULL,NULL,NULL,b1,BlockList1,24,56,2,24,w,NULL,NULL,NULL,NULL,NULL,NULL,NULL,NULL,NULL,TrialProc4,b1trails1,red,e,0,e,474
Individual,6,1,"<?xml version=""1.0""?>\n<Clock xmlns:dt=""urn:schemas-microsoft-com:datatypes""><Description dt:dt=""string"">E-Prime Primary Realtime Clock</Description><StartTime><Timestamp dt:dt=""int"">0</Timestamp><DateUtc dt:dt=""string"">2017-10-12T10:59:10Z</DateUtc></StartTime><FrequencyChanges><FrequencyChange><Frequency dt:dt=""r8"">2923154</Frequency><Timestamp dt:dt=""r8"">759744201314</Timestamp><Current dt:dt=""r8"">0</Current><DateUtc dt:dt=""string"">2017-10-12T10:59:10Z</DateUtc></FrequencyChange></FrequencyChanges></Clock>\n",Individual-006-1,59.955,?,1.0.0.483,1,-464453488,Professional,2.0.10.353,2.0.10.353,10/12/2017,12/10/2017 10:59,11:59:10,2.0.10.248,1,1,1,1,M1,List1,3,3,1,3,NULL,NULL,NULL,b1,BlockList1,25,88,2,25,w,NULL,NULL,NULL,NULL,NULL,NULL,NULL,NULL,NULL,TrialProc4,b1trails1,red,e,1,w,342
Individual,6,1,"<?xml version=""1.0""?>\n<Clock xmlns:dt=""urn:schemas-microsoft-com:datatypes""><Description dt:dt=""string"">E-Prime Primary Realtime Clock</Description><StartTime><Timestamp dt:dt=""int"">0</Timestamp><DateUtc dt:dt=""string"">2017-10-12T10:59:10Z</DateUtc></StartTime><FrequencyChanges><FrequencyChange><Frequency dt:dt=""r8"">2923154</Frequency><Timestamp dt:dt=""r8"">759744201314</Timestamp><Current dt:dt=""r8"">0</Current><DateUtc dt:dt=""string"">2017-10-12T10:59:10Z</DateUtc></FrequencyChange></FrequencyChanges></Clock>\n",Individual-006-1,59.955,?,1.0.0.483,1,-464453488,Professional,2.0.10.353,2.0.10.353,10/12/2017,12/10/2017 10:59,11:59:10,2.0.10.248,1,1,1,1,M1,List1,3,3,1,3,NULL,NULL,NULL,b1,BlockList1,26,11,2,26,w,NULL,NULL,NULL,NULL,NULL,NULL,NULL,NULL,NULL,TrialProc4,b1trails1,red,w,1,w,330
Individual,6,1,"<?xml version=""1.0""?>\n<Clock xmlns:dt=""urn:schemas-microsoft-com:datatypes""><Description dt:dt=""string"">E-Prime Primary Realtime Clock</Description><StartTime><Timestamp dt:dt=""int"">0</Timestamp><DateUtc dt:dt=""string"">2017-10-12T10:59:10Z</DateUtc></StartTime><FrequencyChanges><FrequencyChange><Frequency dt:dt=""r8"">2923154</Frequency><Timestamp dt:dt=""r8"">759744201314</Timestamp><Current dt:dt=""r8"">0</Current><DateUtc dt:dt=""string"">2017-10-12T10:59:10Z</DateUtc></FrequencyChange></FrequencyChanges></Clock>\n",Individual-006-1,59.955,?,1.0.0.483,1,-464453488,Professional,2.0.10.353,2.0.10.353,10/12/2017,12/10/2017 10:59,11:59:10,2.0.10.248,1,1,1,1,M1,List1,3,3,1,3,NULL,NULL,NULL,b1,BlockList1,27,27,2,27,w,NULL,NULL,NULL,NULL,NULL,NULL,NULL,NULL,NULL,TrialProc4,b1trails1,red,w,1,w,377
Individual,6,1,"<?xml version=""1.0""?>\n<Clock xmlns:dt=""urn:schemas-microsoft-com:datatypes""><Description dt:dt=""string"">E-Prime Primary Realtime Clock</Description><StartTime><Timestamp dt:dt=""int"">0</Timestamp><DateUtc dt:dt=""string"">2017-10-12T10:59:10Z</DateUtc></StartTime><FrequencyChanges><FrequencyChange><Frequency dt:dt=""r8"">2923154</Frequency><Timestamp dt:dt=""r8"">759744201314</Timestamp><Current dt:dt=""r8"">0</Current><DateUtc dt:dt=""string"">2017-10-12T10:59:10Z</DateUtc></FrequencyChange></FrequencyChanges></Clock>\n",Individual-006-1,59.955,?,1.0.0.483,1,-464453488,Professional,2.0.10.353,2.0.10.353,10/12/2017,12/10/2017 10:59,11:59:10,2.0.10.248,1,1,1,1,M1,List1,3,3,1,3,NULL,NULL,NULL,b1,BlockList1,28,85,2,28,e,NULL,NULL,NULL,NULL,NULL,NULL,NULL,NULL,NULL,TrialProc4,b1trails1,blue,e,1,e,336
Individual,6,1,"<?xml version=""1.0""?>\n<Clock xmlns:dt=""urn:schemas-microsoft-com:datatypes""><Description dt:dt=""string"">E-Prime Primary Realtime Clock</Description><StartTime><Timestamp dt:dt=""int"">0</Timestamp><DateUtc dt:dt=""string"">2017-10-12T10:59:10Z</DateUtc></StartTime><FrequencyChanges><FrequencyChange><Frequency dt:dt=""r8"">2923154</Frequency><Timestamp dt:dt=""r8"">759744201314</Timestamp><Current dt:dt=""r8"">0</Current><DateUtc dt:dt=""string"">2017-10-12T10:59:10Z</DateUtc></FrequencyChange></FrequencyChanges></Clock>\n",Individual-006-1,59.955,?,1.0.0.483,1,-464453488,Professional,2.0.10.353,2.0.10.353,10/12/2017,12/10/2017 10:59,11:59:10,2.0.10.248,1,1,1,1,M1,List1,3,3,1,3,NULL,NULL,NULL,b1,BlockList1,29,91,2,29,w,NULL,NULL,NULL,NULL,NULL,NULL,NULL,NULL,NULL,TrialProc4,b1trails1,red,w,1,w,317
Individual,6,1,"<?xml version=""1.0""?>\n<Clock xmlns:dt=""urn:schemas-microsoft-com:datatypes""><Description dt:dt=""string"">E-Prime Primary Realtime Clock</Description><StartTime><Timestamp dt:dt=""int"">0</Timestamp><DateUtc dt:dt=""string"">2017-10-12T10:59:10Z</DateUtc></StartTime><FrequencyChanges><FrequencyChange><Frequency dt:dt=""r8"">2923154</Frequency><Timestamp dt:dt=""r8"">759744201314</Timestamp><Current dt:dt=""r8"">0</Current><DateUtc dt:dt=""string"">2017-10-12T10:59:10Z</DateUtc></FrequencyChange></FrequencyChanges></Clock>\n",Individual-006-1,59.955,?,1.0.0.483,1,-464453488,Professional,2.0.10.353,2.0.10.353,10/12/2017,12/10/2017 10:59,11:59:10,2.0.10.248,1,1,1,1,M1,List1,3,3,1,3,NULL,NULL,NULL,b1,BlockList1,30,59,2,30,w,NULL,NULL,NULL,NULL,NULL,NULL,NULL,NULL,NULL,TrialProc4,b1trails1,red,w,1,w,329
Individual,6,1,"<?xml version=""1.0""?>\n<Clock xmlns:dt=""urn:schemas-microsoft-com:datatypes""><Description dt:dt=""string"">E-Prime Primary Realtime Clock</Description><StartTime><Timestamp dt:dt=""int"">0</Timestamp><DateUtc dt:dt=""string"">2017-10-12T10:59:10Z</DateUtc></StartTime><FrequencyChanges><FrequencyChange><Frequency dt:dt=""r8"">2923154</Frequency><Timestamp dt:dt=""r8"">759744201314</Timestamp><Current dt:dt=""r8"">0</Current><DateUtc dt:dt=""string"">2017-10-12T10:59:10Z</DateUtc></FrequencyChange></FrequencyChanges></Clock>\n",Individual-006-1,59.955,?,1.0.0.483,1,-464453488,Professional,2.0.10.353,2.0.10.353,10/12/2017,12/10/2017 10:59,11:59:10,2.0.10.248,1,1,1,1,M1,List1,3,3,1,3,NULL,NULL,NULL,b1,BlockList1,31,95,2,31,w,NULL,NULL,NULL,NULL,NULL,NULL,NULL,NULL,NULL,TrialProc4,b1trails1,red,w,1,w,319
Individual,6,1,"<?xml version=""1.0""?>\n<Clock xmlns:dt=""urn:schemas-microsoft-com:datatypes""><Description dt:dt=""string"">E-Prime Primary Realtime Clock</Description><StartTime><Timestamp dt:dt=""int"">0</Timestamp><DateUtc dt:dt=""string"">2017-10-12T10:59:10Z</DateUtc></StartTime><FrequencyChanges><FrequencyChange><Frequency dt:dt=""r8"">2923154</Frequency><Timestamp dt:dt=""r8"">759744201314</Timestamp><Current dt:dt=""r8"">0</Current><DateUtc dt:dt=""string"">2017-10-12T10:59:10Z</DateUtc></FrequencyChange></FrequencyChanges></Clock>\n",Individual-006-1,59.955,?,1.0.0.483,1,-464453488,Professional,2.0.10.353,2.0.10.353,10/12/2017,12/10/2017 10:59,11:59:10,2.0.10.248,1,1,1,1,M1,List1,3,3,1,3,NULL,NULL,NULL,b1,BlockList1,32,61,2,32,e,NULL,NULL,NULL,NULL,NULL,NULL,NULL,NULL,NULL,TrialProc4,b1trails1,blue,e,1,e,336
Individual,6,1,"<?xml version=""1.0""?>\n<Clock xmlns:dt=""urn:schemas-microsoft-com:datatypes""><Description dt:dt=""string"">E-Prime Primary Realtime Clock</Description><StartTime><Timestamp dt:dt=""int"">0</Timestamp><DateUtc dt:dt=""string"">2017-10-12T10:59:10Z</DateUtc></StartTime><FrequencyChanges><FrequencyChange><Frequency dt:dt=""r8"">2923154</Frequency><Timestamp dt:dt=""r8"">759744201314</Timestamp><Current dt:dt=""r8"">0</Current><DateUtc dt:dt=""string"">2017-10-12T10:59:10Z</DateUtc></FrequencyChange></FrequencyChanges></Clock>\n",Individual-006-1,59.955,?,1.0.0.483,1,-464453488,Professional,2.0.10.353,2.0.10.353,10/12/2017,12/10/2017 10:59,11:59:10,2.0.10.248,1,1,1,1,M1,List1,3,3,1,3,NULL,NULL,NULL,b1,BlockList1,33,2,2,33,e,NULL,NULL,NULL,NULL,NULL,NULL,NULL,NULL,NULL,TrialProc4,b1trails1,blue,w,1,e,395
Individual,6,1,"<?xml version=""1.0""?>\n<Clock xmlns:dt=""urn:schemas-microsoft-com:datatypes""><Description dt:dt=""string"">E-Prime Primary Realtime Clock</Description><StartTime><Timestamp dt:dt=""int"">0</Timestamp><DateUtc dt:dt=""string"">2017-10-12T10:59:10Z</DateUtc></StartTime><FrequencyChanges><FrequencyChange><Frequency dt:dt=""r8"">2923154</Frequency><Timestamp dt:dt=""r8"">759744201314</Timestamp><Current dt:dt=""r8"">0</Current><DateUtc dt:dt=""string"">2017-10-12T10:59:10Z</DateUtc></FrequencyChange></FrequencyChanges></Clock>\n",Individual-006-1,59.955,?,1.0.0.483,1,-464453488,Professional,2.0.10.353,2.0.10.353,10/12/2017,12/10/2017 10:59,11:59:10,2.0.10.248,1,1,1,1,M1,List1,3,3,1,3,NULL,NULL,NULL,b1,BlockList1,34,47,2,34,w,NULL,NULL,NULL,NULL,NULL,NULL,NULL,NULL,NULL,TrialProc4,b1trails1,red,w,1,w,429
Individual,6,1,"<?xml version=""1.0""?>\n<Clock xmlns:dt=""urn:schemas-microsoft-com:datatypes""><Description dt:dt=""string"">E-Prime Primary Realtime Clock</Description><StartTime><Timestamp dt:dt=""int"">0</Timestamp><DateUtc dt:dt=""string"">2017-10-12T10:59:10Z</DateUtc></StartTime><FrequencyChanges><FrequencyChange><Frequency dt:dt=""r8"">2923154</Frequency><Timestamp dt:dt=""r8"">759744201314</Timestamp><Current dt:dt=""r8"">0</Current><DateUtc dt:dt=""string"">2017-10-12T10:59:10Z</DateUtc></FrequencyChange></FrequencyChanges></Clock>\n",Individual-006-1,59.955,?,1.0.0.483,1,-464453488,Professional,2.0.10.353,2.0.10.353,10/12/2017,12/10/2017 10:59,11:59:10,2.0.10.248,1,1,1,1,M1,List1,3,3,1,3,NULL,NULL,NULL,b1,BlockList1,35,32,2,35,w,NULL,NULL,NULL,NULL,NULL,NULL,NULL,NULL,NULL,TrialProc4,b1trails1,red,e,1,w,422
Individual,6,1,"<?xml version=""1.0""?>\n<Clock xmlns:dt=""urn:schemas-microsoft-com:datatypes""><Description dt:dt=""string"">E-Prime Primary Realtime Clock</Description><StartTime><Timestamp dt:dt=""int"">0</Timestamp><DateUtc dt:dt=""string"">2017-10-12T10:59:10Z</DateUtc></StartTime><FrequencyChanges><FrequencyChange><Frequency dt:dt=""r8"">2923154</Frequency><Timestamp dt:dt=""r8"">759744201314</Timestamp><Current dt:dt=""r8"">0</Current><DateUtc dt:dt=""string"">2017-10-12T10:59:10Z</DateUtc></FrequencyChange></FrequencyChanges></Clock>\n",Individual-006-1,59.955,?,1.0.0.483,1,-464453488,Professional,2.0.10.353,2.0.10.353,10/12/2017,12/10/2017 10:59,11:59:10,2.0.10.248,1,1,1,1,M1,List1,3,3,1,3,NULL,NULL,NULL,b1,BlockList1,36,36,2,36,w,NULL,NULL,NULL,NULL,NULL,NULL,NULL,NULL,NULL,TrialProc4,b1trails1,red,e,1,w,403
Individual,6,1,"<?xml version=""1.0""?>\n<Clock xmlns:dt=""urn:schemas-microsoft-com:datatypes""><Description dt:dt=""string"">E-Prime Primary Realtime Clock</Description><StartTime><Timestamp dt:dt=""int"">0</Timestamp><DateUtc dt:dt=""string"">2017-10-12T10:59:10Z</DateUtc></StartTime><FrequencyChanges><FrequencyChange><Frequency dt:dt=""r8"">2923154</Frequency><Timestamp dt:dt=""r8"">759744201314</Timestamp><Current dt:dt=""r8"">0</Current><DateUtc dt:dt=""string"">2017-10-12T10:59:10Z</DateUtc></FrequencyChange></FrequencyChanges></Clock>\n",Individual-006-1,59.955,?,1.0.0.483,1,-464453488,Professional,2.0.10.353,2.0.10.353,10/12/2017,12/10/2017 10:59,11:59:10,2.0.10.248,1,1,1,1,M1,List1,3,3,1,3,NULL,NULL,NULL,b1,BlockList1,37,13,2,37,e,NULL,NULL,NULL,NULL,NULL,NULL,NULL,NULL,NULL,TrialProc4,b1trails1,blue,e,1,e,563
Individual,6,1,"<?xml version=""1.0""?>\n<Clock xmlns:dt=""urn:schemas-microsoft-com:datatypes""><Description dt:dt=""string"">E-Prime Primary Realtime Clock</Description><StartTime><Timestamp dt:dt=""int"">0</Timestamp><DateUtc dt:dt=""string"">2017-10-12T10:59:10Z</DateUtc></StartTime><FrequencyChanges><FrequencyChange><Frequency dt:dt=""r8"">2923154</Frequency><Timestamp dt:dt=""r8"">759744201314</Timestamp><Current dt:dt=""r8"">0</Current><DateUtc dt:dt=""string"">2017-10-12T10:59:10Z</DateUtc></FrequencyChange></FrequencyChanges></Clock>\n",Individual-006-1,59.955,?,1.0.0.483,1,-464453488,Professional,2.0.10.353,2.0.10.353,10/12/2017,12/10/2017 10:59,11:59:10,2.0.10.248,1,1,1,1,M1,List1,3,3,1,3,NULL,NULL,NULL,b1,BlockList1,38,87,2,38,w,NULL,NULL,NULL,NULL,NULL,NULL,NULL,NULL,NULL,TrialProc4,b1trails1,red,w,1,w,455
Individual,6,1,"<?xml version=""1.0""?>\n<Clock xmlns:dt=""urn:schemas-microsoft-com:datatypes""><Description dt:dt=""string"">E-Prime Primary Realtime Clock</Description><StartTime><Timestamp dt:dt=""int"">0</Timestamp><DateUtc dt:dt=""string"">2017-10-12T10:59:10Z</DateUtc></StartTime><FrequencyChanges><FrequencyChange><Frequency dt:dt=""r8"">2923154</Frequency><Timestamp dt:dt=""r8"">759744201314</Timestamp><Current dt:dt=""r8"">0</Current><DateUtc dt:dt=""string"">2017-10-12T10:59:10Z</DateUtc></FrequencyChange></FrequencyChanges></Clock>\n",Individual-006-1,59.955,?,1.0.0.483,1,-464453488,Professional,2.0.10.353,2.0.10.353,10/12/2017,12/10/2017 10:59,11:59:10,2.0.10.248,1,1,1,1,M1,List1,3,3,1,3,NULL,NULL,NULL,b1,BlockList1,39,24,2,39,w,NULL,NULL,NULL,NULL,NULL,NULL,NULL,NULL,NULL,TrialProc4,b1trails1,red,e,1,w,480
Individual,6,1,"<?xml version=""1.0""?>\n<Clock xmlns:dt=""urn:schemas-microsoft-com:datatypes""><Description dt:dt=""string"">E-Prime Primary Realtime Clock</Description><StartTime><Timestamp dt:dt=""int"">0</Timestamp><DateUtc dt:dt=""string"">2017-10-12T10:59:10Z</DateUtc></StartTime><FrequencyChanges><FrequencyChange><Frequency dt:dt=""r8"">2923154</Frequency><Timestamp dt:dt=""r8"">759744201314</Timestamp><Current dt:dt=""r8"">0</Current><DateUtc dt:dt=""string"">2017-10-12T10:59:10Z</DateUtc></FrequencyChange></FrequencyChanges></Clock>\n",Individual-006-1,59.955,?,1.0.0.483,1,-464453488,Professional,2.0.10.353,2.0.10.353,10/12/2017,12/10/2017 10:59,11:59:10,2.0.10.248,1,1,1,1,M1,List1,3,3,1,3,NULL,NULL,NULL,b1,BlockList1,40,35,2,40,w,NULL,NULL,NULL,NULL,NULL,NULL,NULL,NULL,NULL,TrialProc4,b1trails1,red,w,1,w,325
Individual,6,1,"<?xml version=""1.0""?>\n<Clock xmlns:dt=""urn:schemas-microsoft-com:datatypes""><Description dt:dt=""string"">E-Prime Primary Realtime Clock</Description><StartTime><Timestamp dt:dt=""int"">0</Timestamp><DateUtc dt:dt=""string"">2017-10-12T10:59:10Z</DateUtc></StartTime><FrequencyChanges><FrequencyChange><Frequency dt:dt=""r8"">2923154</Frequency><Timestamp dt:dt=""r8"">759744201314</Timestamp><Current dt:dt=""r8"">0</Current><DateUtc dt:dt=""string"">2017-10-12T10:59:10Z</DateUtc></FrequencyChange></FrequencyChanges></Clock>\n",Individual-006-1,59.955,?,1.0.0.483,1,-464453488,Professional,2.0.10.353,2.0.10.353,10/12/2017,12/10/2017 10:59,11:59:10,2.0.10.248,1,1,1,1,M1,List1,3,3,1,3,NULL,NULL,NULL,b1,BlockList1,41,16,2,41,w,NULL,NULL,NULL,NULL,NULL,NULL,NULL,NULL,NULL,TrialProc4,b1trails1,red,e,1,w,382
Individual,6,1,"<?xml version=""1.0""?>\n<Clock xmlns:dt=""urn:schemas-microsoft-com:datatypes""><Description dt:dt=""string"">E-Prime Primary Realtime Clock</Description><StartTime><Timestamp dt:dt=""int"">0</Timestamp><DateUtc dt:dt=""string"">2017-10-12T10:59:10Z</DateUtc></StartTime><FrequencyChanges><FrequencyChange><Frequency dt:dt=""r8"">2923154</Frequency><Timestamp dt:dt=""r8"">759744201314</Timestamp><Current dt:dt=""r8"">0</Current><DateUtc dt:dt=""string"">2017-10-12T10:59:10Z</DateUtc></FrequencyChange></FrequencyChanges></Clock>\n",Individual-006-1,59.955,?,1.0.0.483,1,-464453488,Professional,2.0.10.353,2.0.10.353,10/12/2017,12/10/2017 10:59,11:59:10,2.0.10.248,1,1,1,1,M1,List1,3,3,1,3,NULL,NULL,NULL,b1,BlockList1,42,19,2,42,w,NULL,NULL,NULL,NULL,NULL,NULL,NULL,NULL,NULL,TrialProc4,b1trails1,red,w,1,w,372
Individual,6,1,"<?xml version=""1.0""?>\n<Clock xmlns:dt=""urn:schemas-microsoft-com:datatypes""><Description dt:dt=""string"">E-Prime Primary Realtime Clock</Description><StartTime><Timestamp dt:dt=""int"">0</Timestamp><DateUtc dt:dt=""string"">2017-10-12T10:59:10Z</DateUtc></StartTime><FrequencyChanges><FrequencyChange><Frequency dt:dt=""r8"">2923154</Frequency><Timestamp dt:dt=""r8"">759744201314</Timestamp><Current dt:dt=""r8"">0</Current><DateUtc dt:dt=""string"">2017-10-12T10:59:10Z</DateUtc></FrequencyChange></FrequencyChanges></Clock>\n",Individual-006-1,59.955,?,1.0.0.483,1,-464453488,Professional,2.0.10.353,2.0.10.353,10/12/2017,12/10/2017 10:59,11:59:10,2.0.10.248,1,1,1,1,M1,List1,3,3,1,3,NULL,NULL,NULL,b1,BlockList1,43,49,2,43,e,NULL,NULL,NULL,NULL,NULL,NULL,NULL,NULL,NULL,TrialProc4,b1trails1,blue,e,1,e,341
Individual,6,1,"<?xml version=""1.0""?>\n<Clock xmlns:dt=""urn:schemas-microsoft-com:datatypes""><Description dt:dt=""string"">E-Prime Primary Realtime Clock</Description><StartTime><Timestamp dt:dt=""int"">0</Timestamp><DateUtc dt:dt=""string"">2017-10-12T10:59:10Z</DateUtc></StartTime><FrequencyChanges><FrequencyChange><Frequency dt:dt=""r8"">2923154</Frequency><Timestamp dt:dt=""r8"">759744201314</Timestamp><Current dt:dt=""r8"">0</Current><DateUtc dt:dt=""string"">2017-10-12T10:59:10Z</DateUtc></FrequencyChange></FrequencyChanges></Clock>\n",Individual-006-1,59.955,?,1.0.0.483,1,-464453488,Professional,2.0.10.353,2.0.10.353,10/12/2017,12/10/2017 10:59,11:59:10,2.0.10.248,1,1,1,1,M1,List1,3,3,1,3,NULL,NULL,NULL,b1,BlockList1,44,6,2,44,e,NULL,NULL,NULL,NULL,NULL,NULL,NULL,NULL,NULL,TrialProc4,b1trails1,blue,w,1,e,474
Individual,6,1,"<?xml version=""1.0""?>\n<Clock xmlns:dt=""urn:schemas-microsoft-com:datatypes""><Description dt:dt=""string"">E-Prime Primary Realtime Clock</Description><StartTime><Timestamp dt:dt=""int"">0</Timestamp><DateUtc dt:dt=""string"">2017-10-12T10:59:10Z</DateUtc></StartTime><FrequencyChanges><FrequencyChange><Frequency dt:dt=""r8"">2923154</Frequency><Timestamp dt:dt=""r8"">759744201314</Timestamp><Current dt:dt=""r8"">0</Current><DateUtc dt:dt=""string"">2017-10-12T10:59:10Z</DateUtc></FrequencyChange></FrequencyChanges></Clock>\n",Individual-006-1,59.955,?,1.0.0.483,1,-464453488,Professional,2.0.10.353,2.0.10.353,10/12/2017,12/10/2017 10:59,11:59:10,2.0.10.248,1,1,1,1,M1,List1,3,3,1,3,NULL,NULL,NULL,b1,BlockList1,45,65,2,45,e,NULL,NULL,NULL,NULL,NULL,NULL,NULL,NULL,NULL,TrialProc4,b1trails1,blue,e,1,e,400
Individual,6,1,"<?xml version=""1.0""?>\n<Clock xmlns:dt=""urn:schemas-microsoft-com:datatypes""><Description dt:dt=""string"">E-Prime Primary Realtime Clock</Description><StartTime><Timestamp dt:dt=""int"">0</Timestamp><DateUtc dt:dt=""string"">2017-10-12T10:59:10Z</DateUtc></StartTime><FrequencyChanges><FrequencyChange><Frequency dt:dt=""r8"">2923154</Frequency><Timestamp dt:dt=""r8"">759744201314</Timestamp><Current dt:dt=""r8"">0</Current><DateUtc dt:dt=""string"">2017-10-12T10:59:10Z</DateUtc></FrequencyChange></FrequencyChanges></Clock>\n",Individual-006-1,59.955,?,1.0.0.483,1,-464453488,Professional,2.0.10.353,2.0.10.353,10/12/2017,12/10/2017 10:59,11:59:10,2.0.10.248,1,1,1,1,M1,List1,3,3,1,3,NULL,NULL,NULL,b1,BlockList1,46,40,2,46,w,NULL,NULL,NULL,NULL,NULL,NULL,NULL,NULL,NULL,TrialProc4,b1trails1,red,e,1,w,409
Individual,6,1,"<?xml version=""1.0""?>\n<Clock xmlns:dt=""urn:schemas-microsoft-com:datatypes""><Description dt:dt=""string"">E-Prime Primary Realtime Clock</Description><StartTime><Timestamp dt:dt=""int"">0</Timestamp><DateUtc dt:dt=""string"">2017-10-12T10:59:10Z</DateUtc></StartTime><FrequencyChanges><FrequencyChange><Frequency dt:dt=""r8"">2923154</Frequency><Timestamp dt:dt=""r8"">759744201314</Timestamp><Current dt:dt=""r8"">0</Current><DateUtc dt:dt=""string"">2017-10-12T10:59:10Z</DateUtc></FrequencyChange></FrequencyChanges></Clock>\n",Individual-006-1,59.955,?,1.0.0.483,1,-464453488,Professional,2.0.10.353,2.0.10.353,10/12/2017,12/10/2017 10:59,11:59:10,2.0.10.248,1,1,1,1,M1,List1,3,3,1,3,NULL,NULL,NULL,b1,BlockList1,47,57,2,47,e,NULL,NULL,NULL,NULL,NULL,NULL,NULL,NULL,NULL,TrialProc4,b1trails1,blue,e,1,e,450
Individual,6,1,"<?xml version=""1.0""?>\n<Clock xmlns:dt=""urn:schemas-microsoft-com:datatypes""><Description dt:dt=""string"">E-Prime Primary Realtime Clock</Description><StartTime><Timestamp dt:dt=""int"">0</Timestamp><DateUtc dt:dt=""string"">2017-10-12T10:59:10Z</DateUtc></StartTime><FrequencyChanges><FrequencyChange><Frequency dt:dt=""r8"">2923154</Frequency><Timestamp dt:dt=""r8"">759744201314</Timestamp><Current dt:dt=""r8"">0</Current><DateUtc dt:dt=""string"">2017-10-12T10:59:10Z</DateUtc></FrequencyChange></FrequencyChanges></Clock>\n",Individual-006-1,59.955,?,1.0.0.483,1,-464453488,Professional,2.0.10.353,2.0.10.353,10/12/2017,12/10/2017 10:59,11:59:10,2.0.10.248,1,1,1,1,M1,List1,3,3,1,3,NULL,NULL,NULL,b1,BlockList1,48,42,2,48,e,NULL,NULL,NULL,NULL,NULL,NULL,NULL,NULL,NULL,TrialProc4,b1trails1,blue,w,1,e,458
Individual,6,1,"<?xml version=""1.0""?>\n<Clock xmlns:dt=""urn:schemas-microsoft-com:datatypes""><Description dt:dt=""string"">E-Prime Primary Realtime Clock</Description><StartTime><Timestamp dt:dt=""int"">0</Timestamp><DateUtc dt:dt=""string"">2017-10-12T10:59:10Z</DateUtc></StartTime><FrequencyChanges><FrequencyChange><Frequency dt:dt=""r8"">2923154</Frequency><Timestamp dt:dt=""r8"">759744201314</Timestamp><Current dt:dt=""r8"">0</Current><DateUtc dt:dt=""string"">2017-10-12T10:59:10Z</DateUtc></FrequencyChange></FrequencyChanges></Clock>\n",Individual-006-1,59.955,?,1.0.0.483,1,-464453488,Professional,2.0.10.353,2.0.10.353,10/12/2017,12/10/2017 10:59,11:59:10,2.0.10.248,1,1,1,1,M1,List1,3,3,1,3,NULL,NULL,NULL,b1,BlockList1,49,63,2,49,w,NULL,NULL,NULL,NULL,NULL,NULL,NULL,NULL,NULL,TrialProc4,b1trails1,red,w,1,w,362
Individual,6,1,"<?xml version=""1.0""?>\n<Clock xmlns:dt=""urn:schemas-microsoft-com:datatypes""><Description dt:dt=""string"">E-Prime Primary Realtime Clock</Description><StartTime><Timestamp dt:dt=""int"">0</Timestamp><DateUtc dt:dt=""string"">2017-10-12T10:59:10Z</DateUtc></StartTime><FrequencyChanges><FrequencyChange><Frequency dt:dt=""r8"">2923154</Frequency><Timestamp dt:dt=""r8"">759744201314</Timestamp><Current dt:dt=""r8"">0</Current><DateUtc dt:dt=""string"">2017-10-12T10:59:10Z</DateUtc></FrequencyChange></FrequencyChanges></Clock>\n",Individual-006-1,59.955,?,1.0.0.483,1,-464453488,Professional,2.0.10.353,2.0.10.353,10/12/2017,12/10/2017 10:59,11:59:10,2.0.10.248,1,1,1,1,M1,List1,3,3,1,3,NULL,NULL,NULL,b1,BlockList1,50,18,2,50,e,NULL,NULL,NULL,NULL,NULL,NULL,NULL,NULL,NULL,TrialProc4,b1trails1,blue,w,1,e,518
Individual,6,1,"<?xml version=""1.0""?>\n<Clock xmlns:dt=""urn:schemas-microsoft-com:datatypes""><Description dt:dt=""string"">E-Prime Primary Realtime Clock</Description><StartTime><Timestamp dt:dt=""int"">0</Timestamp><DateUtc dt:dt=""string"">2017-10-12T10:59:10Z</DateUtc></StartTime><FrequencyChanges><FrequencyChange><Frequency dt:dt=""r8"">2923154</Frequency><Timestamp dt:dt=""r8"">759744201314</Timestamp><Current dt:dt=""r8"">0</Current><DateUtc dt:dt=""string"">2017-10-12T10:59:10Z</DateUtc></FrequencyChange></FrequencyChanges></Clock>\n",Individual-006-1,59.955,?,1.0.0.483,1,-464453488,Professional,2.0.10.353,2.0.10.353,10/12/2017,12/10/2017 10:59,11:59:10,2.0.10.248,1,1,1,1,M1,List1,3,3,1,3,NULL,NULL,NULL,b1,BlockList1,51,1,2,51,e,NULL,NULL,NULL,NULL,NULL,NULL,NULL,NULL,NULL,TrialProc4,b1trails1,blue,e,1,e,372
Individual,6,1,"<?xml version=""1.0""?>\n<Clock xmlns:dt=""urn:schemas-microsoft-com:datatypes""><Description dt:dt=""string"">E-Prime Primary Realtime Clock</Description><StartTime><Timestamp dt:dt=""int"">0</Timestamp><DateUtc dt:dt=""string"">2017-10-12T10:59:10Z</DateUtc></StartTime><FrequencyChanges><FrequencyChange><Frequency dt:dt=""r8"">2923154</Frequency><Timestamp dt:dt=""r8"">759744201314</Timestamp><Current dt:dt=""r8"">0</Current><DateUtc dt:dt=""string"">2017-10-12T10:59:10Z</DateUtc></FrequencyChange></FrequencyChanges></Clock>\n",Individual-006-1,59.955,?,1.0.0.483,1,-464453488,Professional,2.0.10.353,2.0.10.353,10/12/2017,12/10/2017 10:59,11:59:10,2.0.10.248,1,1,1,1,M1,List1,3,3,1,3,NULL,NULL,NULL,b1,BlockList1,52,3,2,52,w,NULL,NULL,NULL,NULL,NULL,NULL,NULL,NULL,NULL,TrialProc4,b1trails1,red,w,1,w,352
Individual,6,1,"<?xml version=""1.0""?>\n<Clock xmlns:dt=""urn:schemas-microsoft-com:datatypes""><Description dt:dt=""string"">E-Prime Primary Realtime Clock</Description><StartTime><Timestamp dt:dt=""int"">0</Timestamp><DateUtc dt:dt=""string"">2017-10-12T10:59:10Z</DateUtc></StartTime><FrequencyChanges><FrequencyChange><Frequency dt:dt=""r8"">2923154</Frequency><Timestamp dt:dt=""r8"">759744201314</Timestamp><Current dt:dt=""r8"">0</Current><DateUtc dt:dt=""string"">2017-10-12T10:59:10Z</DateUtc></FrequencyChange></FrequencyChanges></Clock>\n",Individual-006-1,59.955,?,1.0.0.483,1,-464453488,Professional,2.0.10.353,2.0.10.353,10/12/2017,12/10/2017 10:59,11:59:10,2.0.10.248,1,1,1,1,M1,List1,3,3,1,3,NULL,NULL,NULL,b1,BlockList1,53,70,2,53,e,NULL,NULL,NULL,NULL,NULL,NULL,NULL,NULL,NULL,TrialProc4,b1trails1,blue,w,1,e,390
Individual,6,1,"<?xml version=""1.0""?>\n<Clock xmlns:dt=""urn:schemas-microsoft-com:datatypes""><Description dt:dt=""string"">E-Prime Primary Realtime Clock</Description><StartTime><Timestamp dt:dt=""int"">0</Timestamp><DateUtc dt:dt=""string"">2017-10-12T10:59:10Z</DateUtc></StartTime><FrequencyChanges><FrequencyChange><Frequency dt:dt=""r8"">2923154</Frequency><Timestamp dt:dt=""r8"">759744201314</Timestamp><Current dt:dt=""r8"">0</Current><DateUtc dt:dt=""string"">2017-10-12T10:59:10Z</DateUtc></FrequencyChange></FrequencyChanges></Clock>\n",Individual-006-1,59.955,?,1.0.0.483,1,-464453488,Professional,2.0.10.353,2.0.10.353,10/12/2017,12/10/2017 10:59,11:59:10,2.0.10.248,1,1,1,1,M1,List1,3,3,1,3,NULL,NULL,NULL,b1,BlockList1,54,74,2,54,e,NULL,NULL,NULL,NULL,NULL,NULL,NULL,NULL,NULL,TrialProc4,b1trails1,blue,w,1,e,382
Individual,6,1,"<?xml version=""1.0""?>\n<Clock xmlns:dt=""urn:schemas-microsoft-com:datatypes""><Description dt:dt=""string"">E-Prime Primary Realtime Clock</Description><StartTime><Timestamp dt:dt=""int"">0</Timestamp><DateUtc dt:dt=""string"">2017-10-12T10:59:10Z</DateUtc></StartTime><FrequencyChanges><FrequencyChange><Frequency dt:dt=""r8"">2923154</Frequency><Timestamp dt:dt=""r8"">759744201314</Timestamp><Current dt:dt=""r8"">0</Current><DateUtc dt:dt=""string"">2017-10-12T10:59:10Z</DateUtc></FrequencyChange></FrequencyChanges></Clock>\n",Individual-006-1,59.955,?,1.0.0.483,1,-464453488,Professional,2.0.10.353,2.0.10.353,10/12/2017,12/10/2017 10:59,11:59:10,2.0.10.248,1,1,1,1,M1,List1,3,3,1,3,NULL,NULL,NULL,b1,BlockList1,55,31,2,55,w,NULL,NULL,NULL,NULL,NULL,NULL,NULL,NULL,NULL,TrialProc4,b1trails1,red,w,1,w,448
Individual,6,1,"<?xml version=""1.0""?>\n<Clock xmlns:dt=""urn:schemas-microsoft-com:datatypes""><Description dt:dt=""string"">E-Prime Primary Realtime Clock</Description><StartTime><Timestamp dt:dt=""int"">0</Timestamp><DateUtc dt:dt=""string"">2017-10-12T10:59:10Z</DateUtc></StartTime><FrequencyChanges><FrequencyChange><Frequency dt:dt=""r8"">2923154</Frequency><Timestamp dt:dt=""r8"">759744201314</Timestamp><Current dt:dt=""r8"">0</Current><DateUtc dt:dt=""string"">2017-10-12T10:59:10Z</DateUtc></FrequencyChange></FrequencyChanges></Clock>\n",Individual-006-1,59.955,?,1.0.0.483,1,-464453488,Professional,2.0.10.353,2.0.10.353,10/12/2017,12/10/2017 10:59,11:59:10,2.0.10.248,1,1,1,1,M1,List1,3,3,1,3,NULL,NULL,NULL,b1,BlockList1,56,17,2,56,e,NULL,NULL,NULL,NULL,NULL,NULL,NULL,NULL,NULL,TrialProc4,b1trails1,blue,e,1,e,340
Individual,6,1,"<?xml version=""1.0""?>\n<Clock xmlns:dt=""urn:schemas-microsoft-com:datatypes""><Description dt:dt=""string"">E-Prime Primary Realtime Clock</Description><StartTime><Timestamp dt:dt=""int"">0</Timestamp><DateUtc dt:dt=""string"">2017-10-12T10:59:10Z</DateUtc></StartTime><FrequencyChanges><FrequencyChange><Frequency dt:dt=""r8"">2923154</Frequency><Timestamp dt:dt=""r8"">759744201314</Timestamp><Current dt:dt=""r8"">0</Current><DateUtc dt:dt=""string"">2017-10-12T10:59:10Z</DateUtc></FrequencyChange></FrequencyChanges></Clock>\n",Individual-006-1,59.955,?,1.0.0.483,1,-464453488,Professional,2.0.10.353,2.0.10.353,10/12/2017,12/10/2017 10:59,11:59:10,2.0.10.248,1,1,1,1,M1,List1,3,3,1,3,NULL,NULL,NULL,b1,BlockList1,57,52,2,57,w,NULL,NULL,NULL,NULL,NULL,NULL,NULL,NULL,NULL,TrialProc4,b1trails1,red,e,1,w,496
Individual,6,1,"<?xml version=""1.0""?>\n<Clock xmlns:dt=""urn:schemas-microsoft-com:datatypes""><Description dt:dt=""string"">E-Prime Primary Realtime Clock</Description><StartTime><Timestamp dt:dt=""int"">0</Timestamp><DateUtc dt:dt=""string"">2017-10-12T10:59:10Z</DateUtc></StartTime><FrequencyChanges><FrequencyChange><Frequency dt:dt=""r8"">2923154</Frequency><Timestamp dt:dt=""r8"">759744201314</Timestamp><Current dt:dt=""r8"">0</Current><DateUtc dt:dt=""string"">2017-10-12T10:59:10Z</DateUtc></FrequencyChange></FrequencyChanges></Clock>\n",Individual-006-1,59.955,?,1.0.0.483,1,-464453488,Professional,2.0.10.353,2.0.10.353,10/12/2017,12/10/2017 10:59,11:59:10,2.0.10.248,1,1,1,1,M1,List1,3,3,1,3,NULL,NULL,NULL,b1,BlockList1,58,4,2,58,w,NULL,NULL,NULL,NULL,NULL,NULL,NULL,NULL,NULL,TrialProc4,b1trails1,red,e,1,w,498
Individual,6,1,"<?xml version=""1.0""?>\n<Clock xmlns:dt=""urn:schemas-microsoft-com:datatypes""><Description dt:dt=""string"">E-Prime Primary Realtime Clock</Description><StartTime><Timestamp dt:dt=""int"">0</Timestamp><DateUtc dt:dt=""string"">2017-10-12T10:59:10Z</DateUtc></StartTime><FrequencyChanges><FrequencyChange><Frequency dt:dt=""r8"">2923154</Frequency><Timestamp dt:dt=""r8"">759744201314</Timestamp><Current dt:dt=""r8"">0</Current><DateUtc dt:dt=""string"">2017-10-12T10:59:10Z</DateUtc></FrequencyChange></FrequencyChanges></Clock>\n",Individual-006-1,59.955,?,1.0.0.483,1,-464453488,Professional,2.0.10.353,2.0.10.353,10/12/2017,12/10/2017 10:59,11:59:10,2.0.10.248,1,1,1,1,M1,List1,3,3,1,3,NULL,NULL,NULL,b1,BlockList1,59,12,2,59,w,NULL,NULL,NULL,NULL,NULL,NULL,NULL,NULL,NULL,TrialProc4,b1trails1,red,e,1,w,372
Individual,6,1,"<?xml version=""1.0""?>\n<Clock xmlns:dt=""urn:schemas-microsoft-com:datatypes""><Description dt:dt=""string"">E-Prime Primary Realtime Clock</Description><StartTime><Timestamp dt:dt=""int"">0</Timestamp><DateUtc dt:dt=""string"">2017-10-12T10:59:10Z</DateUtc></StartTime><FrequencyChanges><FrequencyChange><Frequency dt:dt=""r8"">2923154</Frequency><Timestamp dt:dt=""r8"">759744201314</Timestamp><Current dt:dt=""r8"">0</Current><DateUtc dt:dt=""string"">2017-10-12T10:59:10Z</DateUtc></FrequencyChange></FrequencyChanges></Clock>\n",Individual-006-1,59.955,?,1.0.0.483,1,-464453488,Professional,2.0.10.353,2.0.10.353,10/12/2017,12/10/2017 10:59,11:59:10,2.0.10.248,1,1,1,1,M1,List1,3,3,1,3,NULL,NULL,NULL,b1,BlockList1,60,15,2,60,w,NULL,NULL,NULL,NULL,NULL,NULL,NULL,NULL,NULL,TrialProc4,b1trails1,red,w,1,w,459
Individual,6,1,"<?xml version=""1.0""?>\n<Clock xmlns:dt=""urn:schemas-microsoft-com:datatypes""><Description dt:dt=""string"">E-Prime Primary Realtime Clock</Description><StartTime><Timestamp dt:dt=""int"">0</Timestamp><DateUtc dt:dt=""string"">2017-10-12T10:59:10Z</DateUtc></StartTime><FrequencyChanges><FrequencyChange><Frequency dt:dt=""r8"">2923154</Frequency><Timestamp dt:dt=""r8"">759744201314</Timestamp><Current dt:dt=""r8"">0</Current><DateUtc dt:dt=""string"">2017-10-12T10:59:10Z</DateUtc></FrequencyChange></FrequencyChanges></Clock>\n",Individual-006-1,59.955,?,1.0.0.483,1,-464453488,Professional,2.0.10.353,2.0.10.353,10/12/2017,12/10/2017 10:59,11:59:10,2.0.10.248,1,1,1,1,M1,List1,3,3,1,3,NULL,NULL,NULL,b1,BlockList1,61,46,2,61,e,NULL,NULL,NULL,NULL,NULL,NULL,NULL,NULL,NULL,TrialProc4,b1trails1,blue,w,1,e,398
Individual,6,1,"<?xml version=""1.0""?>\n<Clock xmlns:dt=""urn:schemas-microsoft-com:datatypes""><Description dt:dt=""string"">E-Prime Primary Realtime Clock</Description><StartTime><Timestamp dt:dt=""int"">0</Timestamp><DateUtc dt:dt=""string"">2017-10-12T10:59:10Z</DateUtc></StartTime><FrequencyChanges><FrequencyChange><Frequency dt:dt=""r8"">2923154</Frequency><Timestamp dt:dt=""r8"">759744201314</Timestamp><Current dt:dt=""r8"">0</Current><DateUtc dt:dt=""string"">2017-10-12T10:59:10Z</DateUtc></FrequencyChange></FrequencyChanges></Clock>\n",Individual-006-1,59.955,?,1.0.0.483,1,-464453488,Professional,2.0.10.353,2.0.10.353,10/12/2017,12/10/2017 10:59,11:59:10,2.0.10.248,1,1,1,1,M1,List1,3,3,1,3,NULL,NULL,NULL,b1,BlockList1,62,79,2,62,w,NULL,NULL,NULL,NULL,NULL,NULL,NULL,NULL,NULL,TrialProc4,b1trails1,red,w,1,w,412
Individual,6,1,"<?xml version=""1.0""?>\n<Clock xmlns:dt=""urn:schemas-microsoft-com:datatypes""><Description dt:dt=""string"">E-Prime Primary Realtime Clock</Description><StartTime><Timestamp dt:dt=""int"">0</Timestamp><DateUtc dt:dt=""string"">2017-10-12T10:59:10Z</DateUtc></StartTime><FrequencyChanges><FrequencyChange><Frequency dt:dt=""r8"">2923154</Frequency><Timestamp dt:dt=""r8"">759744201314</Timestamp><Current dt:dt=""r8"">0</Current><DateUtc dt:dt=""string"">2017-10-12T10:59:10Z</DateUtc></FrequencyChange></FrequencyChanges></Clock>\n",Individual-006-1,59.955,?,1.0.0.483,1,-464453488,Professional,2.0.10.353,2.0.10.353,10/12/2017,12/10/2017 10:59,11:59:10,2.0.10.248,1,1,1,1,M1,List1,3,3,1,3,NULL,NULL,NULL,b1,BlockList1,63,82,2,63,e,NULL,NULL,NULL,NULL,NULL,NULL,NULL,NULL,NULL,TrialProc4,b1trails1,blue,w,1,e,521
Individual,6,1,"<?xml version=""1.0""?>\n<Clock xmlns:dt=""urn:schemas-microsoft-com:datatypes""><Description dt:dt=""string"">E-Prime Primary Realtime Clock</Description><StartTime><Timestamp dt:dt=""int"">0</Timestamp><DateUtc dt:dt=""string"">2017-10-12T10:59:10Z</DateUtc></StartTime><FrequencyChanges><FrequencyChange><Frequency dt:dt=""r8"">2923154</Frequency><Timestamp dt:dt=""r8"">759744201314</Timestamp><Current dt:dt=""r8"">0</Current><DateUtc dt:dt=""string"">2017-10-12T10:59:10Z</DateUtc></FrequencyChange></FrequencyChanges></Clock>\n",Individual-006-1,59.955,?,1.0.0.483,1,-464453488,Professional,2.0.10.353,2.0.10.353,10/12/2017,12/10/2017 10:59,11:59:10,2.0.10.248,1,1,1,1,M1,List1,3,3,1,3,NULL,NULL,NULL,b1,BlockList1,64,14,2,64,e,NULL,NULL,NULL,NULL,NULL,NULL,NULL,NULL,NULL,TrialProc4,b1trails1,blue,w,1,e,366
Individual,6,1,"<?xml version=""1.0""?>\n<Clock xmlns:dt=""urn:schemas-microsoft-com:datatypes""><Description dt:dt=""string"">E-Prime Primary Realtime Clock</Description><StartTime><Timestamp dt:dt=""int"">0</Timestamp><DateUtc dt:dt=""string"">2017-10-12T10:59:10Z</DateUtc></StartTime><FrequencyChanges><FrequencyChange><Frequency dt:dt=""r8"">2923154</Frequency><Timestamp dt:dt=""r8"">759744201314</Timestamp><Current dt:dt=""r8"">0</Current><DateUtc dt:dt=""string"">2017-10-12T10:59:10Z</DateUtc></FrequencyChange></FrequencyChanges></Clock>\n",Individual-006-1,59.955,?,1.0.0.483,1,-464453488,Professional,2.0.10.353,2.0.10.353,10/12/2017,12/10/2017 10:59,11:59:10,2.0.10.248,1,1,1,1,M1,List1,3,3,1,3,NULL,NULL,NULL,b1,BlockList1,65,69,2,65,e,NULL,NULL,NULL,NULL,NULL,NULL,NULL,NULL,NULL,TrialProc4,b1trails1,blue,e,1,e,411
Individual,6,1,"<?xml version=""1.0""?>\n<Clock xmlns:dt=""urn:schemas-microsoft-com:datatypes""><Description dt:dt=""string"">E-Prime Primary Realtime Clock</Description><StartTime><Timestamp dt:dt=""int"">0</Timestamp><DateUtc dt:dt=""string"">2017-10-12T10:59:10Z</DateUtc></StartTime><FrequencyChanges><FrequencyChange><Frequency dt:dt=""r8"">2923154</Frequency><Timestamp dt:dt=""r8"">759744201314</Timestamp><Current dt:dt=""r8"">0</Current><DateUtc dt:dt=""string"">2017-10-12T10:59:10Z</DateUtc></FrequencyChange></FrequencyChanges></Clock>\n",Individual-006-1,59.955,?,1.0.0.483,1,-464453488,Professional,2.0.10.353,2.0.10.353,10/12/2017,12/10/2017 10:59,11:59:10,2.0.10.248,1,1,1,1,M1,List1,3,3,1,3,NULL,NULL,NULL,b1,BlockList1,66,37,2,66,e,NULL,NULL,NULL,NULL,NULL,NULL,NULL,NULL,NULL,TrialProc4,b1trails1,blue,e,1,e,366
Individual,6,1,"<?xml version=""1.0""?>\n<Clock xmlns:dt=""urn:schemas-microsoft-com:datatypes""><Description dt:dt=""string"">E-Prime Primary Realtime Clock</Description><StartTime><Timestamp dt:dt=""int"">0</Timestamp><DateUtc dt:dt=""string"">2017-10-12T10:59:10Z</DateUtc></StartTime><FrequencyChanges><FrequencyChange><Frequency dt:dt=""r8"">2923154</Frequency><Timestamp dt:dt=""r8"">759744201314</Timestamp><Current dt:dt=""r8"">0</Current><DateUtc dt:dt=""string"">2017-10-12T10:59:10Z</DateUtc></FrequencyChange></FrequencyChanges></Clock>\n",Individual-006-1,59.955,?,1.0.0.483,1,-464453488,Professional,2.0.10.353,2.0.10.353,10/12/2017,12/10/2017 10:59,11:59:10,2.0.10.248,1,1,1,1,M1,List1,3,3,1,3,NULL,NULL,NULL,b1,BlockList1,67,75,2,67,w,NULL,NULL,NULL,NULL,NULL,NULL,NULL,NULL,NULL,TrialProc4,b1trails1,red,w,1,w,468
Individual,6,1,"<?xml version=""1.0""?>\n<Clock xmlns:dt=""urn:schemas-microsoft-com:datatypes""><Description dt:dt=""string"">E-Prime Primary Realtime Clock</Description><StartTime><Timestamp dt:dt=""int"">0</Timestamp><DateUtc dt:dt=""string"">2017-10-12T10:59:10Z</DateUtc></StartTime><FrequencyChanges><FrequencyChange><Frequency dt:dt=""r8"">2923154</Frequency><Timestamp dt:dt=""r8"">759744201314</Timestamp><Current dt:dt=""r8"">0</Current><DateUtc dt:dt=""string"">2017-10-12T10:59:10Z</DateUtc></FrequencyChange></FrequencyChanges></Clock>\n",Individual-006-1,59.955,?,1.0.0.483,1,-464453488,Professional,2.0.10.353,2.0.10.353,10/12/2017,12/10/2017 10:59,11:59:10,2.0.10.248,1,1,1,1,M1,List1,3,3,1,3,NULL,NULL,NULL,b1,BlockList1,68,33,2,68,e,NULL,NULL,NULL,NULL,NULL,NULL,NULL,NULL,NULL,TrialProc4,b1trails1,blue,e,1,e,375
Individual,6,1,"<?xml version=""1.0""?>\n<Clock xmlns:dt=""urn:schemas-microsoft-com:datatypes""><Description dt:dt=""string"">E-Prime Primary Realtime Clock</Description><StartTime><Timestamp dt:dt=""int"">0</Timestamp><DateUtc dt:dt=""string"">2017-10-12T10:59:10Z</DateUtc></StartTime><FrequencyChanges><FrequencyChange><Frequency dt:dt=""r8"">2923154</Frequency><Timestamp dt:dt=""r8"">759744201314</Timestamp><Current dt:dt=""r8"">0</Current><DateUtc dt:dt=""string"">2017-10-12T10:59:10Z</DateUtc></FrequencyChange></FrequencyChanges></Clock>\n",Individual-006-1,59.955,?,1.0.0.483,1,-464453488,Professional,2.0.10.353,2.0.10.353,10/12/2017,12/10/2017 10:59,11:59:10,2.0.10.248,1,1,1,1,M1,List1,3,3,1,3,NULL,NULL,NULL,b1,BlockList1,69,67,2,69,w,NULL,NULL,NULL,NULL,NULL,NULL,NULL,NULL,NULL,TrialProc4,b1trails1,red,w,1,w,391
Individual,6,1,"<?xml version=""1.0""?>\n<Clock xmlns:dt=""urn:schemas-microsoft-com:datatypes""><Description dt:dt=""string"">E-Prime Primary Realtime Clock</Description><StartTime><Timestamp dt:dt=""int"">0</Timestamp><DateUtc dt:dt=""string"">2017-10-12T10:59:10Z</DateUtc></StartTime><FrequencyChanges><FrequencyChange><Frequency dt:dt=""r8"">2923154</Frequency><Timestamp dt:dt=""r8"">759744201314</Timestamp><Current dt:dt=""r8"">0</Current><DateUtc dt:dt=""string"">2017-10-12T10:59:10Z</DateUtc></FrequencyChange></FrequencyChanges></Clock>\n",Individual-006-1,59.955,?,1.0.0.483,1,-464453488,Professional,2.0.10.353,2.0.10.353,10/12/2017,12/10/2017 10:59,11:59:10,2.0.10.248,1,1,1,1,M1,List1,3,3,1,3,NULL,NULL,NULL,b1,BlockList1,70,20,2,70,w,NULL,NULL,NULL,NULL,NULL,NULL,NULL,NULL,NULL,TrialProc4,b1trails1,red,e,1,w,422
Individual,6,1,"<?xml version=""1.0""?>\n<Clock xmlns:dt=""urn:schemas-microsoft-com:datatypes""><Description dt:dt=""string"">E-Prime Primary Realtime Clock</Description><StartTime><Timestamp dt:dt=""int"">0</Timestamp><DateUtc dt:dt=""string"">2017-10-12T10:59:10Z</DateUtc></StartTime><FrequencyChanges><FrequencyChange><Frequency dt:dt=""r8"">2923154</Frequency><Timestamp dt:dt=""r8"">759744201314</Timestamp><Current dt:dt=""r8"">0</Current><DateUtc dt:dt=""string"">2017-10-12T10:59:10Z</DateUtc></FrequencyChange></FrequencyChanges></Clock>\n",Individual-006-1,59.955,?,1.0.0.483,1,-464453488,Professional,2.0.10.353,2.0.10.353,10/12/2017,12/10/2017 10:59,11:59:10,2.0.10.248,1,1,1,1,M1,List1,3,3,1,3,NULL,NULL,NULL,b1,BlockList1,71,30,2,71,e,NULL,NULL,NULL,NULL,NULL,NULL,NULL,NULL,NULL,TrialProc4,b1trails1,blue,w,1,e,504
Individual,6,1,"<?xml version=""1.0""?>\n<Clock xmlns:dt=""urn:schemas-microsoft-com:datatypes""><Description dt:dt=""string"">E-Prime Primary Realtime Clock</Description><StartTime><Timestamp dt:dt=""int"">0</Timestamp><DateUtc dt:dt=""string"">2017-10-12T10:59:10Z</DateUtc></StartTime><FrequencyChanges><FrequencyChange><Frequency dt:dt=""r8"">2923154</Frequency><Timestamp dt:dt=""r8"">759744201314</Timestamp><Current dt:dt=""r8"">0</Current><DateUtc dt:dt=""string"">2017-10-12T10:59:10Z</DateUtc></FrequencyChange></FrequencyChanges></Clock>\n",Individual-006-1,59.955,?,1.0.0.483,1,-464453488,Professional,2.0.10.353,2.0.10.353,10/12/2017,12/10/2017 10:59,11:59:10,2.0.10.248,1,1,1,1,M1,List1,3,3,1,3,NULL,NULL,NULL,b1,BlockList1,72,26,2,72,e,NULL,NULL,NULL,NULL,NULL,NULL,NULL,NULL,NULL,TrialProc4,b1trails1,blue,w,1,e,428
Individual,6,1,"<?xml version=""1.0""?>\n<Clock xmlns:dt=""urn:schemas-microsoft-com:datatypes""><Description dt:dt=""string"">E-Prime Primary Realtime Clock</Description><StartTime><Timestamp dt:dt=""int"">0</Timestamp><DateUtc dt:dt=""string"">2017-10-12T10:59:10Z</DateUtc></StartTime><FrequencyChanges><FrequencyChange><Frequency dt:dt=""r8"">2923154</Frequency><Timestamp dt:dt=""r8"">759744201314</Timestamp><Current dt:dt=""r8"">0</Current><DateUtc dt:dt=""string"">2017-10-12T10:59:10Z</DateUtc></FrequencyChange></FrequencyChanges></Clock>\n",Individual-006-1,59.955,?,1.0.0.483,1,-464453488,Professional,2.0.10.353,2.0.10.353,10/12/2017,12/10/2017 10:59,11:59:10,2.0.10.248,1,1,1,1,M1,List1,3,3,1,3,NULL,NULL,NULL,b1,BlockList1,73,93,2,73,e,NULL,NULL,NULL,NULL,NULL,NULL,NULL,NULL,NULL,TrialProc4,b1trails1,blue,e,1,e,368
Individual,6,1,"<?xml version=""1.0""?>\n<Clock xmlns:dt=""urn:schemas-microsoft-com:datatypes""><Description dt:dt=""string"">E-Prime Primary Realtime Clock</Description><StartTime><Timestamp dt:dt=""int"">0</Timestamp><DateUtc dt:dt=""string"">2017-10-12T10:59:10Z</DateUtc></StartTime><FrequencyChanges><FrequencyChange><Frequency dt:dt=""r8"">2923154</Frequency><Timestamp dt:dt=""r8"">759744201314</Timestamp><Current dt:dt=""r8"">0</Current><DateUtc dt:dt=""string"">2017-10-12T10:59:10Z</DateUtc></FrequencyChange></FrequencyChanges></Clock>\n",Individual-006-1,59.955,?,1.0.0.483,1,-464453488,Professional,2.0.10.353,2.0.10.353,10/12/2017,12/10/2017 10:59,11:59:10,2.0.10.248,1,1,1,1,M1,List1,3,3,1,3,NULL,NULL,NULL,b1,BlockList1,74,39,2,74,w,NULL,NULL,NULL,NULL,NULL,NULL,NULL,NULL,NULL,TrialProc4,b1trails1,red,w,1,w,420
Individual,6,1,"<?xml version=""1.0""?>\n<Clock xmlns:dt=""urn:schemas-microsoft-com:datatypes""><Description dt:dt=""string"">E-Prime Primary Realtime Clock</Description><StartTime><Timestamp dt:dt=""int"">0</Timestamp><DateUtc dt:dt=""string"">2017-10-12T10:59:10Z</DateUtc></StartTime><FrequencyChanges><FrequencyChange><Frequency dt:dt=""r8"">2923154</Frequency><Timestamp dt:dt=""r8"">759744201314</Timestamp><Current dt:dt=""r8"">0</Current><DateUtc dt:dt=""string"">2017-10-12T10:59:10Z</DateUtc></FrequencyChange></FrequencyChanges></Clock>\n",Individual-006-1,59.955,?,1.0.0.483,1,-464453488,Professional,2.0.10.353,2.0.10.353,10/12/2017,12/10/2017 10:59,11:59:10,2.0.10.248,1,1,1,1,M1,List1,3,3,1,3,NULL,NULL,NULL,b1,BlockList1,75,64,2,75,w,NULL,NULL,NULL,NULL,NULL,NULL,NULL,NULL,NULL,TrialProc4,b1trails1,red,e,1,w,436
Individual,6,1,"<?xml version=""1.0""?>\n<Clock xmlns:dt=""urn:schemas-microsoft-com:datatypes""><Description dt:dt=""string"">E-Prime Primary Realtime Clock</Description><StartTime><Timestamp dt:dt=""int"">0</Timestamp><DateUtc dt:dt=""string"">2017-10-12T10:59:10Z</DateUtc></StartTime><FrequencyChanges><FrequencyChange><Frequency dt:dt=""r8"">2923154</Frequency><Timestamp dt:dt=""r8"">759744201314</Timestamp><Current dt:dt=""r8"">0</Current><DateUtc dt:dt=""string"">2017-10-12T10:59:10Z</DateUtc></FrequencyChange></FrequencyChanges></Clock>\n",Individual-006-1,59.955,?,1.0.0.483,1,-464453488,Professional,2.0.10.353,2.0.10.353,10/12/2017,12/10/2017 10:59,11:59:10,2.0.10.248,1,1,1,1,M1,List1,3,3,1,3,NULL,NULL,NULL,b1,BlockList1,76,62,2,76,e,NULL,NULL,NULL,NULL,NULL,NULL,NULL,NULL,NULL,TrialProc4,b1trails1,blue,w,1,e,564
Individual,6,1,"<?xml version=""1.0""?>\n<Clock xmlns:dt=""urn:schemas-microsoft-com:datatypes""><Description dt:dt=""string"">E-Prime Primary Realtime Clock</Description><StartTime><Timestamp dt:dt=""int"">0</Timestamp><DateUtc dt:dt=""string"">2017-10-12T10:59:10Z</DateUtc></StartTime><FrequencyChanges><FrequencyChange><Frequency dt:dt=""r8"">2923154</Frequency><Timestamp dt:dt=""r8"">759744201314</Timestamp><Current dt:dt=""r8"">0</Current><DateUtc dt:dt=""string"">2017-10-12T10:59:10Z</DateUtc></FrequencyChange></FrequencyChanges></Clock>\n",Individual-006-1,59.955,?,1.0.0.483,1,-464453488,Professional,2.0.10.353,2.0.10.353,10/12/2017,12/10/2017 10:59,11:59:10,2.0.10.248,1,1,1,1,M1,List1,3,3,1,3,NULL,NULL,NULL,b1,BlockList1,77,43,2,77,w,NULL,NULL,NULL,NULL,NULL,NULL,NULL,NULL,NULL,TrialProc4,b1trails1,red,w,1,w,573
Individual,6,1,"<?xml version=""1.0""?>\n<Clock xmlns:dt=""urn:schemas-microsoft-com:datatypes""><Description dt:dt=""string"">E-Prime Primary Realtime Clock</Description><StartTime><Timestamp dt:dt=""int"">0</Timestamp><DateUtc dt:dt=""string"">2017-10-12T10:59:10Z</DateUtc></StartTime><FrequencyChanges><FrequencyChange><Frequency dt:dt=""r8"">2923154</Frequency><Timestamp dt:dt=""r8"">759744201314</Timestamp><Current dt:dt=""r8"">0</Current><DateUtc dt:dt=""string"">2017-10-12T10:59:10Z</DateUtc></FrequencyChange></FrequencyChanges></Clock>\n",Individual-006-1,59.955,?,1.0.0.483,1,-464453488,Professional,2.0.10.353,2.0.10.353,10/12/2017,12/10/2017 10:59,11:59:10,2.0.10.248,1,1,1,1,M1,List1,3,3,1,3,NULL,NULL,NULL,b1,BlockList1,78,34,2,78,e,NULL,NULL,NULL,NULL,NULL,NULL,NULL,NULL,NULL,TrialProc4,b1trails1,blue,w,1,e,501
Individual,6,1,"<?xml version=""1.0""?>\n<Clock xmlns:dt=""urn:schemas-microsoft-com:datatypes""><Description dt:dt=""string"">E-Prime Primary Realtime Clock</Description><StartTime><Timestamp dt:dt=""int"">0</Timestamp><DateUtc dt:dt=""string"">2017-10-12T10:59:10Z</DateUtc></StartTime><FrequencyChanges><FrequencyChange><Frequency dt:dt=""r8"">2923154</Frequency><Timestamp dt:dt=""r8"">759744201314</Timestamp><Current dt:dt=""r8"">0</Current><DateUtc dt:dt=""string"">2017-10-12T10:59:10Z</DateUtc></FrequencyChange></FrequencyChanges></Clock>\n",Individual-006-1,59.955,?,1.0.0.483,1,-464453488,Professional,2.0.10.353,2.0.10.353,10/12/2017,12/10/2017 10:59,11:59:10,2.0.10.248,1,1,1,1,M1,List1,3,3,1,3,NULL,NULL,NULL,b1,BlockList1,79,44,2,79,w,NULL,NULL,NULL,NULL,NULL,NULL,NULL,NULL,NULL,TrialProc4,b1trails1,red,e,1,w,351
Individual,6,1,"<?xml version=""1.0""?>\n<Clock xmlns:dt=""urn:schemas-microsoft-com:datatypes""><Description dt:dt=""string"">E-Prime Primary Realtime Clock</Description><StartTime><Timestamp dt:dt=""int"">0</Timestamp><DateUtc dt:dt=""string"">2017-10-12T10:59:10Z</DateUtc></StartTime><FrequencyChanges><FrequencyChange><Frequency dt:dt=""r8"">2923154</Frequency><Timestamp dt:dt=""r8"">759744201314</Timestamp><Current dt:dt=""r8"">0</Current><DateUtc dt:dt=""string"">2017-10-12T10:59:10Z</DateUtc></FrequencyChange></FrequencyChanges></Clock>\n",Individual-006-1,59.955,?,1.0.0.483,1,-464453488,Professional,2.0.10.353,2.0.10.353,10/12/2017,12/10/2017 10:59,11:59:10,2.0.10.248,1,1,1,1,M1,List1,3,3,1,3,NULL,NULL,NULL,b1,BlockList1,80,53,2,80,e,NULL,NULL,NULL,NULL,NULL,NULL,NULL,NULL,NULL,TrialProc4,b1trails1,blue,e,1,e,389
Individual,6,1,"<?xml version=""1.0""?>\n<Clock xmlns:dt=""urn:schemas-microsoft-com:datatypes""><Description dt:dt=""string"">E-Prime Primary Realtime Clock</Description><StartTime><Timestamp dt:dt=""int"">0</Timestamp><DateUtc dt:dt=""string"">2017-10-12T10:59:10Z</DateUtc></StartTime><FrequencyChanges><FrequencyChange><Frequency dt:dt=""r8"">2923154</Frequency><Timestamp dt:dt=""r8"">759744201314</Timestamp><Current dt:dt=""r8"">0</Current><DateUtc dt:dt=""string"">2017-10-12T10:59:10Z</DateUtc></FrequencyChange></FrequencyChanges></Clock>\n",Individual-006-1,59.955,?,1.0.0.483,1,-464453488,Professional,2.0.10.353,2.0.10.353,10/12/2017,12/10/2017 10:59,11:59:10,2.0.10.248,1,1,1,1,M1,List1,3,3,1,3,NULL,NULL,NULL,b1,BlockList1,81,73,2,81,e,NULL,NULL,NULL,NULL,NULL,NULL,NULL,NULL,NULL,TrialProc4,b1trails1,blue,e,1,e,395
Individual,6,1,"<?xml version=""1.0""?>\n<Clock xmlns:dt=""urn:schemas-microsoft-com:datatypes""><Description dt:dt=""string"">E-Prime Primary Realtime Clock</Description><StartTime><Timestamp dt:dt=""int"">0</Timestamp><DateUtc dt:dt=""string"">2017-10-12T10:59:10Z</DateUtc></StartTime><FrequencyChanges><FrequencyChange><Frequency dt:dt=""r8"">2923154</Frequency><Timestamp dt:dt=""r8"">759744201314</Timestamp><Current dt:dt=""r8"">0</Current><DateUtc dt:dt=""string"">2017-10-12T10:59:10Z</DateUtc></FrequencyChange></FrequencyChanges></Clock>\n",Individual-006-1,59.955,?,1.0.0.483,1,-464453488,Professional,2.0.10.353,2.0.10.353,10/12/2017,12/10/2017 10:59,11:59:10,2.0.10.248,1,1,1,1,M1,List1,3,3,1,3,NULL,NULL,NULL,b1,BlockList1,82,80,2,82,w,NULL,NULL,NULL,NULL,NULL,NULL,NULL,NULL,NULL,TrialProc4,b1trails1,red,e,1,w,493
Individual,6,1,"<?xml version=""1.0""?>\n<Clock xmlns:dt=""urn:schemas-microsoft-com:datatypes""><Description dt:dt=""string"">E-Prime Primary Realtime Clock</Description><StartTime><Timestamp dt:dt=""int"">0</Timestamp><DateUtc dt:dt=""string"">2017-10-12T10:59:10Z</DateUtc></StartTime><FrequencyChanges><FrequencyChange><Frequency dt:dt=""r8"">2923154</Frequency><Timestamp dt:dt=""r8"">759744201314</Timestamp><Current dt:dt=""r8"">0</Current><DateUtc dt:dt=""string"">2017-10-12T10:59:10Z</DateUtc></FrequencyChange></FrequencyChanges></Clock>\n",Individual-006-1,59.955,?,1.0.0.483,1,-464453488,Professional,2.0.10.353,2.0.10.353,10/12/2017,12/10/2017 10:59,11:59:10,2.0.10.248,1,1,1,1,M1,List1,3,3,1,3,NULL,NULL,NULL,b1,BlockList1,83,51,2,83,w,NULL,NULL,NULL,NULL,NULL,NULL,NULL,NULL,NULL,TrialProc4,b1trails1,red,w,0,e,492
Individual,6,1,"<?xml version=""1.0""?>\n<Clock xmlns:dt=""urn:schemas-microsoft-com:datatypes""><Description dt:dt=""string"">E-Prime Primary Realtime Clock</Description><StartTime><Timestamp dt:dt=""int"">0</Timestamp><DateUtc dt:dt=""string"">2017-10-12T10:59:10Z</DateUtc></StartTime><FrequencyChanges><FrequencyChange><Frequency dt:dt=""r8"">2923154</Frequency><Timestamp dt:dt=""r8"">759744201314</Timestamp><Current dt:dt=""r8"">0</Current><DateUtc dt:dt=""string"">2017-10-12T10:59:10Z</DateUtc></FrequencyChange></FrequencyChanges></Clock>\n",Individual-006-1,59.955,?,1.0.0.483,1,-464453488,Professional,2.0.10.353,2.0.10.353,10/12/2017,12/10/2017 10:59,11:59:10,2.0.10.248,1,1,1,1,M1,List1,3,3,1,3,NULL,NULL,NULL,b1,BlockList1,84,77,2,84,e,NULL,NULL,NULL,NULL,NULL,NULL,NULL,NULL,NULL,TrialProc4,b1trails1,blue,e,1,e,719
Individual,6,1,"<?xml version=""1.0""?>\n<Clock xmlns:dt=""urn:schemas-microsoft-com:datatypes""><Description dt:dt=""string"">E-Prime Primary Realtime Clock</Description><StartTime><Timestamp dt:dt=""int"">0</Timestamp><DateUtc dt:dt=""string"">2017-10-12T10:59:10Z</DateUtc></StartTime><FrequencyChanges><FrequencyChange><Frequency dt:dt=""r8"">2923154</Frequency><Timestamp dt:dt=""r8"">759744201314</Timestamp><Current dt:dt=""r8"">0</Current><DateUtc dt:dt=""string"">2017-10-12T10:59:10Z</DateUtc></FrequencyChange></FrequencyChanges></Clock>\n",Individual-006-1,59.955,?,1.0.0.483,1,-464453488,Professional,2.0.10.353,2.0.10.353,10/12/2017,12/10/2017 10:59,11:59:10,2.0.10.248,1,1,1,1,M1,List1,3,3,1,3,NULL,NULL,NULL,b1,BlockList1,85,90,2,85,e,NULL,NULL,NULL,NULL,NULL,NULL,NULL,NULL,NULL,TrialProc4,b1trails1,blue,w,1,e,482
Individual,6,1,"<?xml version=""1.0""?>\n<Clock xmlns:dt=""urn:schemas-microsoft-com:datatypes""><Description dt:dt=""string"">E-Prime Primary Realtime Clock</Description><StartTime><Timestamp dt:dt=""int"">0</Timestamp><DateUtc dt:dt=""string"">2017-10-12T10:59:10Z</DateUtc></StartTime><FrequencyChanges><FrequencyChange><Frequency dt:dt=""r8"">2923154</Frequency><Timestamp dt:dt=""r8"">759744201314</Timestamp><Current dt:dt=""r8"">0</Current><DateUtc dt:dt=""string"">2017-10-12T10:59:10Z</DateUtc></FrequencyChange></FrequencyChanges></Clock>\n",Individual-006-1,59.955,?,1.0.0.483,1,-464453488,Professional,2.0.10.353,2.0.10.353,10/12/2017,12/10/2017 10:59,11:59:10,2.0.10.248,1,1,1,1,M1,List1,3,3,1,3,NULL,NULL,NULL,b1,BlockList1,86,72,2,86,w,NULL,NULL,NULL,NULL,NULL,NULL,NULL,NULL,NULL,TrialProc4,b1trails1,red,e,1,w,454
Individual,6,1,"<?xml version=""1.0""?>\n<Clock xmlns:dt=""urn:schemas-microsoft-com:datatypes""><Description dt:dt=""string"">E-Prime Primary Realtime Clock</Description><StartTime><Timestamp dt:dt=""int"">0</Timestamp><DateUtc dt:dt=""string"">2017-10-12T10:59:10Z</DateUtc></StartTime><FrequencyChanges><FrequencyChange><Frequency dt:dt=""r8"">2923154</Frequency><Timestamp dt:dt=""r8"">759744201314</Timestamp><Current dt:dt=""r8"">0</Current><DateUtc dt:dt=""string"">2017-10-12T10:59:10Z</DateUtc></FrequencyChange></FrequencyChanges></Clock>\n",Individual-006-1,59.955,?,1.0.0.483,1,-464453488,Professional,2.0.10.353,2.0.10.353,10/12/2017,12/10/2017 10:59,11:59:10,2.0.10.248,1,1,1,1,M1,List1,3,3,1,3,NULL,NULL,NULL,b1,BlockList1,87,5,2,87,e,NULL,NULL,NULL,NULL,NULL,NULL,NULL,NULL,NULL,TrialProc4,b1trails1,blue,e,1,e,389
Individual,6,1,"<?xml version=""1.0""?>\n<Clock xmlns:dt=""urn:schemas-microsoft-com:datatypes""><Description dt:dt=""string"">E-Prime Primary Realtime Clock</Description><StartTime><Timestamp dt:dt=""int"">0</Timestamp><DateUtc dt:dt=""string"">2017-10-12T10:59:10Z</DateUtc></StartTime><FrequencyChanges><FrequencyChange><Frequency dt:dt=""r8"">2923154</Frequency><Timestamp dt:dt=""r8"">759744201314</Timestamp><Current dt:dt=""r8"">0</Current><DateUtc dt:dt=""string"">2017-10-12T10:59:10Z</DateUtc></FrequencyChange></FrequencyChanges></Clock>\n",Individual-006-1,59.955,?,1.0.0.483,1,-464453488,Professional,2.0.10.353,2.0.10.353,10/12/2017,12/10/2017 10:59,11:59:10,2.0.10.248,1,1,1,1,M1,List1,3,3,1,3,NULL,NULL,NULL,b1,BlockList1,88,38,2,88,e,NULL,NULL,NULL,NULL,NULL,NULL,NULL,NULL,NULL,TrialProc4,b1trails1,blue,w,1,e,435
Individual,6,1,"<?xml version=""1.0""?>\n<Clock xmlns:dt=""urn:schemas-microsoft-com:datatypes""><Description dt:dt=""string"">E-Prime Primary Realtime Clock</Description><StartTime><Timestamp dt:dt=""int"">0</Timestamp><DateUtc dt:dt=""string"">2017-10-12T10:59:10Z</DateUtc></StartTime><FrequencyChanges><FrequencyChange><Frequency dt:dt=""r8"">2923154</Frequency><Timestamp dt:dt=""r8"">759744201314</Timestamp><Current dt:dt=""r8"">0</Current><DateUtc dt:dt=""string"">2017-10-12T10:59:10Z</DateUtc></FrequencyChange></FrequencyChanges></Clock>\n",Individual-006-1,59.955,?,1.0.0.483,1,-464453488,Professional,2.0.10.353,2.0.10.353,10/12/2017,12/10/2017 10:59,11:59:10,2.0.10.248,1,1,1,1,M1,List1,3,3,1,3,NULL,NULL,NULL,b1,BlockList1,89,86,2,89,e,NULL,NULL,NULL,NULL,NULL,NULL,NULL,NULL,NULL,TrialProc4,b1trails1,blue,w,1,e,444
Individual,6,1,"<?xml version=""1.0""?>\n<Clock xmlns:dt=""urn:schemas-microsoft-com:datatypes""><Description dt:dt=""string"">E-Prime Primary Realtime Clock</Description><StartTime><Timestamp dt:dt=""int"">0</Timestamp><DateUtc dt:dt=""string"">2017-10-12T10:59:10Z</DateUtc></StartTime><FrequencyChanges><FrequencyChange><Frequency dt:dt=""r8"">2923154</Frequency><Timestamp dt:dt=""r8"">759744201314</Timestamp><Current dt:dt=""r8"">0</Current><DateUtc dt:dt=""string"">2017-10-12T10:59:10Z</DateUtc></FrequencyChange></FrequencyChanges></Clock>\n",Individual-006-1,59.955,?,1.0.0.483,1,-464453488,Professional,2.0.10.353,2.0.10.353,10/12/2017,12/10/2017 10:59,11:59:10,2.0.10.248,1,1,1,1,M1,List1,3,3,1,3,NULL,NULL,NULL,b1,BlockList1,90,55,2,90,w,NULL,NULL,NULL,NULL,NULL,NULL,NULL,NULL,NULL,TrialProc4,b1trails1,red,w,1,w,476
Individual,6,1,"<?xml version=""1.0""?>\n<Clock xmlns:dt=""urn:schemas-microsoft-com:datatypes""><Description dt:dt=""string"">E-Prime Primary Realtime Clock</Description><StartTime><Timestamp dt:dt=""int"">0</Timestamp><DateUtc dt:dt=""string"">2017-10-12T10:59:10Z</DateUtc></StartTime><FrequencyChanges><FrequencyChange><Frequency dt:dt=""r8"">2923154</Frequency><Timestamp dt:dt=""r8"">759744201314</Timestamp><Current dt:dt=""r8"">0</Current><DateUtc dt:dt=""string"">2017-10-12T10:59:10Z</DateUtc></FrequencyChange></FrequencyChanges></Clock>\n",Individual-006-1,59.955,?,1.0.0.483,1,-464453488,Professional,2.0.10.353,2.0.10.353,10/12/2017,12/10/2017 10:59,11:59:10,2.0.10.248,1,1,1,1,M1,List1,3,3,1,3,NULL,NULL,NULL,b1,BlockList1,91,96,2,91,w,NULL,NULL,NULL,NULL,NULL,NULL,NULL,NULL,NULL,TrialProc4,b1trails1,red,e,1,w,427
Individual,6,1,"<?xml version=""1.0""?>\n<Clock xmlns:dt=""urn:schemas-microsoft-com:datatypes""><Description dt:dt=""string"">E-Prime Primary Realtime Clock</Description><StartTime><Timestamp dt:dt=""int"">0</Timestamp><DateUtc dt:dt=""string"">2017-10-12T10:59:10Z</DateUtc></StartTime><FrequencyChanges><FrequencyChange><Frequency dt:dt=""r8"">2923154</Frequency><Timestamp dt:dt=""r8"">759744201314</Timestamp><Current dt:dt=""r8"">0</Current><DateUtc dt:dt=""string"">2017-10-12T10:59:10Z</DateUtc></FrequencyChange></FrequencyChanges></Clock>\n",Individual-006-1,59.955,?,1.0.0.483,1,-464453488,Professional,2.0.10.353,2.0.10.353,10/12/2017,12/10/2017 10:59,11:59:10,2.0.10.248,1,1,1,1,M1,List1,3,3,1,3,NULL,NULL,NULL,b1,BlockList1,92,81,2,92,e,NULL,NULL,NULL,NULL,NULL,NULL,NULL,NULL,NULL,TrialProc4,b1trails1,blue,e,1,e,546
Individual,6,1,"<?xml version=""1.0""?>\n<Clock xmlns:dt=""urn:schemas-microsoft-com:datatypes""><Description dt:dt=""string"">E-Prime Primary Realtime Clock</Description><StartTime><Timestamp dt:dt=""int"">0</Timestamp><DateUtc dt:dt=""string"">2017-10-12T10:59:10Z</DateUtc></StartTime><FrequencyChanges><FrequencyChange><Frequency dt:dt=""r8"">2923154</Frequency><Timestamp dt:dt=""r8"">759744201314</Timestamp><Current dt:dt=""r8"">0</Current><DateUtc dt:dt=""string"">2017-10-12T10:59:10Z</DateUtc></FrequencyChange></FrequencyChanges></Clock>\n",Individual-006-1,59.955,?,1.0.0.483,1,-464453488,Professional,2.0.10.353,2.0.10.353,10/12/2017,12/10/2017 10:59,11:59:10,2.0.10.248,1,1,1,1,M1,List1,3,3,1,3,NULL,NULL,NULL,b1,BlockList1,93,92,2,93,w,NULL,NULL,NULL,NULL,NULL,NULL,NULL,NULL,NULL,TrialProc4,b1trails1,red,e,1,w,449
Individual,6,1,"<?xml version=""1.0""?>\n<Clock xmlns:dt=""urn:schemas-microsoft-com:datatypes""><Description dt:dt=""string"">E-Prime Primary Realtime Clock</Description><StartTime><Timestamp dt:dt=""int"">0</Timestamp><DateUtc dt:dt=""string"">2017-10-12T10:59:10Z</DateUtc></StartTime><FrequencyChanges><FrequencyChange><Frequency dt:dt=""r8"">2923154</Frequency><Timestamp dt:dt=""r8"">759744201314</Timestamp><Current dt:dt=""r8"">0</Current><DateUtc dt:dt=""string"">2017-10-12T10:59:10Z</DateUtc></FrequencyChange></FrequencyChanges></Clock>\n",Individual-006-1,59.955,?,1.0.0.483,1,-464453488,Professional,2.0.10.353,2.0.10.353,10/12/2017,12/10/2017 10:59,11:59:10,2.0.10.248,1,1,1,1,M1,List1,3,3,1,3,NULL,NULL,NULL,b1,BlockList1,94,45,2,94,e,NULL,NULL,NULL,NULL,NULL,NULL,NULL,NULL,NULL,TrialProc4,b1trails1,blue,e,1,e,639
Individual,6,1,"<?xml version=""1.0""?>\n<Clock xmlns:dt=""urn:schemas-microsoft-com:datatypes""><Description dt:dt=""string"">E-Prime Primary Realtime Clock</Description><StartTime><Timestamp dt:dt=""int"">0</Timestamp><DateUtc dt:dt=""string"">2017-10-12T10:59:10Z</DateUtc></StartTime><FrequencyChanges><FrequencyChange><Frequency dt:dt=""r8"">2923154</Frequency><Timestamp dt:dt=""r8"">759744201314</Timestamp><Current dt:dt=""r8"">0</Current><DateUtc dt:dt=""string"">2017-10-12T10:59:10Z</DateUtc></FrequencyChange></FrequencyChanges></Clock>\n",Individual-006-1,59.955,?,1.0.0.483,1,-464453488,Professional,2.0.10.353,2.0.10.353,10/12/2017,12/10/2017 10:59,11:59:10,2.0.10.248,1,1,1,1,M1,List1,3,3,1,3,NULL,NULL,NULL,b1,BlockList1,95,78,2,95,e,NULL,NULL,NULL,NULL,NULL,NULL,NULL,NULL,NULL,TrialProc4,b1trails1,blue,w,1,e,515
Individual,6,1,"<?xml version=""1.0""?>\n<Clock xmlns:dt=""urn:schemas-microsoft-com:datatypes""><Description dt:dt=""string"">E-Prime Primary Realtime Clock</Description><StartTime><Timestamp dt:dt=""int"">0</Timestamp><DateUtc dt:dt=""string"">2017-10-12T10:59:10Z</DateUtc></StartTime><FrequencyChanges><FrequencyChange><Frequency dt:dt=""r8"">2923154</Frequency><Timestamp dt:dt=""r8"">759744201314</Timestamp><Current dt:dt=""r8"">0</Current><DateUtc dt:dt=""string"">2017-10-12T10:59:10Z</DateUtc></FrequencyChange></FrequencyChanges></Clock>\n",Individual-006-1,59.955,?,1.0.0.483,1,-464453488,Professional,2.0.10.353,2.0.10.353,10/12/2017,12/10/2017 10:59,11:59:10,2.0.10.248,1,1,1,1,M1,List1,3,3,1,3,NULL,NULL,NULL,b1,BlockList1,96,60,2,96,w,NULL,NULL,NULL,NULL,NULL,NULL,NULL,NULL,NULL,TrialProc4,b1trails1,red,e,1,w,512
Individual,6,1,"<?xml version=""1.0""?>\n<Clock xmlns:dt=""urn:schemas-microsoft-com:datatypes""><Description dt:dt=""string"">E-Prime Primary Realtime Clock</Description><StartTime><Timestamp dt:dt=""int"">0</Timestamp><DateUtc dt:dt=""string"">2017-10-12T10:59:10Z</DateUtc></StartTime><FrequencyChanges><FrequencyChange><Frequency dt:dt=""r8"">2923154</Frequency><Timestamp dt:dt=""r8"">759744201314</Timestamp><Current dt:dt=""r8"">0</Current><DateUtc dt:dt=""string"">2017-10-12T10:59:10Z</DateUtc></FrequencyChange></FrequencyChanges></Clock>\n",Individual-006-1,59.955,?,1.0.0.483,1,-464453488,Professional,2.0.10.353,2.0.10.353,10/12/2017,12/10/2017 10:59,11:59:10,2.0.10.248,2,2,1,2,M2,List1,1,NULL,NULL,NULL,1,1,1,PracTrial2,BlockList2,1,NULL,NULL,NULL,e,NULL,NULL,NULL,NULL,NULL,NULL,8,2,1,TrialProc,PracTrials2,red,e,1,e,481
Individual,6,1,"<?xml version=""1.0""?>\n<Clock xmlns:dt=""urn:schemas-microsoft-com:datatypes""><Description dt:dt=""string"">E-Prime Primary Realtime Clock</Description><StartTime><Timestamp dt:dt=""int"">0</Timestamp><DateUtc dt:dt=""string"">2017-10-12T10:59:10Z</DateUtc></StartTime><FrequencyChanges><FrequencyChange><Frequency dt:dt=""r8"">2923154</Frequency><Timestamp dt:dt=""r8"">759744201314</Timestamp><Current dt:dt=""r8"">0</Current><DateUtc dt:dt=""string"">2017-10-12T10:59:10Z</DateUtc></FrequencyChange></FrequencyChanges></Clock>\n",Individual-006-1,59.955,?,1.0.0.483,1,-464453488,Professional,2.0.10.353,2.0.10.353,10/12/2017,12/10/2017 10:59,11:59:10,2.0.10.248,2,2,1,2,M2,List1,1,NULL,NULL,NULL,1,1,1,PracTrial2,BlockList2,2,NULL,NULL,NULL,w,NULL,NULL,NULL,NULL,NULL,NULL,14,2,2,TrialProc,PracTrials2,blue,w,1,w,510
Individual,6,1,"<?xml version=""1.0""?>\n<Clock xmlns:dt=""urn:schemas-microsoft-com:datatypes""><Description dt:dt=""string"">E-Prime Primary Realtime Clock</Description><StartTime><Timestamp dt:dt=""int"">0</Timestamp><DateUtc dt:dt=""string"">2017-10-12T10:59:10Z</DateUtc></StartTime><FrequencyChanges><FrequencyChange><Frequency dt:dt=""r8"">2923154</Frequency><Timestamp dt:dt=""r8"">759744201314</Timestamp><Current dt:dt=""r8"">0</Current><DateUtc dt:dt=""string"">2017-10-12T10:59:10Z</DateUtc></FrequencyChange></FrequencyChanges></Clock>\n",Individual-006-1,59.955,?,1.0.0.483,1,-464453488,Professional,2.0.10.353,2.0.10.353,10/12/2017,12/10/2017 10:59,11:59:10,2.0.10.248,2,2,1,2,M2,List1,1,NULL,NULL,NULL,1,1,1,PracTrial2,BlockList2,3,NULL,NULL,NULL,e,NULL,NULL,NULL,NULL,NULL,NULL,4,2,3,TrialProc,PracTrials2,red,e,1,e,389
Individual,6,1,"<?xml version=""1.0""?>\n<Clock xmlns:dt=""urn:schemas-microsoft-com:datatypes""><Description dt:dt=""string"">E-Prime Primary Realtime Clock</Description><StartTime><Timestamp dt:dt=""int"">0</Timestamp><DateUtc dt:dt=""string"">2017-10-12T10:59:10Z</DateUtc></StartTime><FrequencyChanges><FrequencyChange><Frequency dt:dt=""r8"">2923154</Frequency><Timestamp dt:dt=""r8"">759744201314</Timestamp><Current dt:dt=""r8"">0</Current><DateUtc dt:dt=""string"">2017-10-12T10:59:10Z</DateUtc></FrequencyChange></FrequencyChanges></Clock>\n",Individual-006-1,59.955,?,1.0.0.483,1,-464453488,Professional,2.0.10.353,2.0.10.353,10/12/2017,12/10/2017 10:59,11:59:10,2.0.10.248,2,2,1,2,M2,List1,1,NULL,NULL,NULL,1,1,1,PracTrial2,BlockList2,4,NULL,NULL,NULL,e,NULL,NULL,NULL,NULL,NULL,NULL,12,2,4,TrialProc,PracTrials2,red,e,1,e,404
Individual,6,1,"<?xml version=""1.0""?>\n<Clock xmlns:dt=""urn:schemas-microsoft-com:datatypes""><Description dt:dt=""string"">E-Prime Primary Realtime Clock</Description><StartTime><Timestamp dt:dt=""int"">0</Timestamp><DateUtc dt:dt=""string"">2017-10-12T10:59:10Z</DateUtc></StartTime><FrequencyChanges><FrequencyChange><Frequency dt:dt=""r8"">2923154</Frequency><Timestamp dt:dt=""r8"">759744201314</Timestamp><Current dt:dt=""r8"">0</Current><DateUtc dt:dt=""string"">2017-10-12T10:59:10Z</DateUtc></FrequencyChange></FrequencyChanges></Clock>\n",Individual-006-1,59.955,?,1.0.0.483,1,-464453488,Professional,2.0.10.353,2.0.10.353,10/12/2017,12/10/2017 10:59,11:59:10,2.0.10.248,2,2,1,2,M2,List1,1,NULL,NULL,NULL,1,1,1,PracTrial2,BlockList2,5,NULL,NULL,NULL,e,NULL,NULL,NULL,NULL,NULL,NULL,11,2,5,TrialProc,PracTrials2,red,w,1,e,437
Individual,6,1,"<?xml version=""1.0""?>\n<Clock xmlns:dt=""urn:schemas-microsoft-com:datatypes""><Description dt:dt=""string"">E-Prime Primary Realtime Clock</Description><StartTime><Timestamp dt:dt=""int"">0</Timestamp><DateUtc dt:dt=""string"">2017-10-12T10:59:10Z</DateUtc></StartTime><FrequencyChanges><FrequencyChange><Frequency dt:dt=""r8"">2923154</Frequency><Timestamp dt:dt=""r8"">759744201314</Timestamp><Current dt:dt=""r8"">0</Current><DateUtc dt:dt=""string"">2017-10-12T10:59:10Z</DateUtc></FrequencyChange></FrequencyChanges></Clock>\n",Individual-006-1,59.955,?,1.0.0.483,1,-464453488,Professional,2.0.10.353,2.0.10.353,10/12/2017,12/10/2017 10:59,11:59:10,2.0.10.248,2,2,1,2,M2,List1,1,NULL,NULL,NULL,1,1,1,PracTrial2,BlockList2,6,NULL,NULL,NULL,e,NULL,NULL,NULL,NULL,NULL,NULL,7,2,6,TrialProc,PracTrials2,red,w,1,e,542
